# accelerometer data
# file: 'rgbd_dataset_freiburg1_rpy.bag'
# timestamp ax ay az
1305031225.727159 0.682514 7.818977 -5.603800
1305031225.730643 0.778306 7.818977 -5.603800
1305031225.731785 0.778306 7.818977 -5.603800
1305031225.735073 0.526853 7.914769 -5.699591
1305031225.736106 0.526853 7.914769 -5.699591
1305031225.737283 0.526853 7.914769 -5.699591
1305031225.738488 0.526853 7.914769 -5.699591
1305031225.741911 0.682514 7.723186 -5.508009
1305031225.742902 0.682514 7.723186 -5.508009
1305031225.746160 0.526853 7.723186 -5.316426
1305031225.747288 0.526853 7.723186 -5.316426
1305031225.750816 0.682514 7.675290 -5.603800
1305031225.751808 0.682514 7.675290 -5.603800
1305031225.755036 0.574749 7.639368 -5.508009
1305031225.756157 0.574749 7.639368 -5.508009
1305031225.759663 0.478957 7.818977 -5.555904
1305031225.760618 0.478957 7.818977 -5.555904
1305031225.761998 0.478957 7.818977 -5.555904
1305031225.763078 0.478957 7.818977 -5.555904
1305031225.766167 0.478957 7.818977 -5.496035
1305031225.767165 0.478957 7.818977 -5.496035
1305031225.770785 0.682514 7.675290 -5.412217
1305031225.771789 0.682514 7.675290 -5.412217
1305031225.775034 0.778306 7.818977 -5.699591
1305031225.776037 0.778306 7.818977 -5.699591
1305031225.777140 0.778306 7.818977 -5.699591
1305031225.778489 0.778306 7.818977 -5.699591
1305031225.781909 0.682514 7.651342 -5.531956
1305031225.782891 0.682514 7.651342 -5.531956
1305031225.786151 0.778306 7.627394 -5.795383
1305031225.789626 0.682514 7.639368 -5.603800
1305031225.790643 0.682514 7.639368 -5.603800
1305031225.791892 0.682514 7.639368 -5.603800
1305031225.792894 0.682514 7.639368 -5.603800
1305031225.796162 0.778306 7.579499 -5.795383
1305031225.797162 0.778306 7.579499 -5.795383
1305031225.800622 0.478957 7.675290 -5.699591
1305031225.801789 0.478957 7.675290 -5.699591
1305031225.805051 0.682514 7.723186 -5.891174
1305031225.806017 0.682514 7.723186 -5.891174
1305031225.809660 0.574749 7.651342 -5.986966
1305031225.810671 0.574749 7.651342 -5.986966
1305031225.811899 0.574749 7.651342 -5.986966
1305031225.812891 0.574749 7.651342 -5.986966
1305031225.816019 0.490931 7.627394 -5.986966
1305031225.817159 0.490931 7.627394 -5.986966
1305031225.820646 0.526853 7.627394 -5.843279
1305031225.821774 0.526853 7.627394 -5.843279
1305031225.824935 0.682514 7.651342 -5.603800
1305031225.826036 0.682514 7.651342 -5.603800
1305031225.827291 0.682514 7.651342 -5.603800
1305031225.828290 0.682514 7.651342 -5.603800
1305031225.831770 0.682514 7.627394 -5.699591
1305031225.832907 0.682514 7.627394 -5.699591
1305031225.836300 0.574749 7.627394 -5.508009
1305031225.837579 0.574749 7.627394 -5.508009
1305031225.838643 0.574749 7.627394 -5.508009
1305031225.841927 0.490931 7.627394 -5.124843
1305031225.842880 0.490931 7.627394 -5.124843
1305031225.846203 0.478957 7.627394 -5.124843
1305031225.847160 0.478957 7.627394 -5.124843
1305031225.850797 0.478957 7.435812 -5.076947
1305031225.851821 0.478957 7.435812 -5.076947
1305031225.855023 0.287374 7.603447 -4.789573
1305031225.856061 0.287374 7.603447 -4.789573
1305031225.859787 0.443035 7.627394 -4.550094
1305031225.860887 0.443035 7.627394 -4.550094
1305031225.862043 0.443035 7.627394 -4.550094
1305031225.863017 0.443035 7.627394 -4.550094
1305031225.866162 0.478957 7.639368 -4.454303
1305031225.867159 0.478957 7.639368 -4.454303
1305031225.870825 0.478957 7.627394 -4.358511
1305031225.871816 0.478957 7.627394 -4.358511
1305031225.875040 0.478957 7.627394 -4.358511
1305031225.876021 0.478957 7.627394 -4.358511
1305031225.879643 0.287374 7.627394 -4.166928
1305031225.880669 0.287374 7.627394 -4.166928
1305031225.882047 0.287374 7.627394 -4.166928
1305031225.883044 0.287374 7.627394 -4.166928
1305031225.886189 0.395140 7.627394 -4.334563
1305031225.887161 0.395140 7.627394 -4.334563
1305031225.890622 0.395140 7.675290 -4.310615
1305031225.891630 0.395140 7.675290 -4.310615
1305031225.895036 0.478957 7.627394 -4.550094
1305031225.896065 0.478957 7.627394 -4.550094
1305031225.897332 0.478957 7.627394 -4.550094
1305031225.898634 0.478957 7.627394 -4.550094
1305031225.901924 0.395140 7.603447 -4.741677
1305031225.903035 0.395140 7.603447 -4.741677
1305031225.906163 0.287374 7.627394 -4.741677
1305031225.907171 0.287374 7.627394 -4.741677
1305031225.910786 0.287374 7.435812 -4.789573
1305031225.911796 0.287374 7.435812 -4.789573
1305031225.915168 0.143687 7.340020 -5.148791
1305031225.916163 0.143687 7.340020 -5.148791
1305031225.919755 0.287374 7.244229 -5.508009
1305031225.920739 0.287374 7.244229 -5.508009
1305031225.921992 0.287374 7.244229 -5.508009
1305031225.923119 0.287374 7.244229 -5.508009
1305031225.926160 0.107765 7.292124 -5.699591
1305031225.927159 0.107765 7.292124 -5.699591
1305031225.930776 0.095791 7.340020 -5.891174
1305031225.931773 0.095791 7.340020 -5.891174
1305031225.934869 0.011974 7.340020 -6.082757
1305031225.936086 0.011974 7.340020 -6.082757
1305031225.937280 0.011974 7.340020 -6.082757
1305031225.938622 0.011974 7.340020 -6.082757
1305031225.941914 -0.083818 7.340020 -6.178549
1305031225.942897 -0.083818 7.340020 -6.178549
1305031225.946197 -0.371192 7.531603 -5.891174
1305031225.947142 -0.371192 7.531603 -5.891174
1305031225.950767 -0.263426 7.615421 -6.250392
1305031225.951949 -0.263426 7.615421 -6.250392
1305031225.955005 -0.275400 7.627394 -5.903148
1305031225.956123 -0.275400 7.627394 -5.903148
1305031225.959620 -0.275400 7.818977 -6.082757
1305031225.960738 -0.275400 7.818977 -6.082757
1305031225.962043 -0.275400 7.818977 -6.082757
1305031225.963037 -0.275400 7.818977 -6.082757
1305031225.966161 -0.323296 8.010560 -5.939070
1305031225.967144 -0.323296 8.010560 -5.939070
1305031225.970767 -0.287374 7.914769 -5.891174
1305031225.971791 -0.287374 7.914769 -5.891174
1305031225.975023 -0.574749 8.010560 -5.795383
1305031225.976019 -0.574749 8.010560 -5.795383
1305031225.979657 -0.658566 8.010560 -5.603800
1305031225.980629 -0.658566 8.010560 -5.603800
1305031225.981899 -0.658566 8.010560 -5.603800
1305031225.983035 -0.658566 8.010560 -5.603800
1305031225.986148 -0.622644 7.914769 -5.986966
1305031225.987118 -0.622644 7.914769 -5.986966
1305031225.990780 -0.658566 7.818977 -5.986966
1305031225.991744 -0.658566 7.818977 -5.986966
1305031225.995172 -0.706462 7.914769 -5.699591
1305031225.996190 -0.706462 7.914769 -5.699591
1305031225.999787 -0.706462 7.627394 -5.891174
1305031226.000786 -0.706462 7.627394 -5.891174
1305031226.002041 -0.706462 7.627394 -5.891174
1305031226.003021 -0.706462 7.627394 -5.891174
1305031226.006197 -0.850149 7.675290 -5.795383
1305031226.007167 -0.850149 7.675290 -5.795383
1305031226.010769 -1.041732 7.627394 -5.699591
1305031226.011820 -1.041732 7.627394 -5.699591
1305031226.015018 -1.029758 7.627394 -5.891174
1305031226.016160 -1.029758 7.627394 -5.891174
1305031226.019620 -1.005810 7.818977 -6.082757
1305031226.020736 -1.005810 7.818977 -6.082757
1305031226.021992 -1.005810 7.818977 -6.082757
1305031226.022988 -1.005810 7.818977 -6.082757
1305031226.026179 -0.850149 7.914769 -6.274340
1305031226.027159 -0.850149 7.914769 -6.274340
1305031226.030795 -0.850149 7.818977 -6.274340
1305031226.031834 -0.850149 7.818977 -6.274340
1305031226.035018 -1.053706 7.723186 -6.370132
1305031226.036158 -1.053706 7.723186 -6.370132
1305031226.039643 -1.089628 7.723186 -6.681454
1305031226.040670 -1.089628 7.723186 -6.681454
1305031226.042033 -1.089628 7.723186 -6.681454
1305031226.043033 -1.089628 7.723186 -6.681454
1305031226.046159 -1.245289 7.627394 -6.681454
1305031226.047150 -1.245289 7.627394 -6.681454
1305031226.050741 -1.412924 7.627394 -6.657506
1305031226.051821 -1.412924 7.627394 -6.657506
1305031226.054992 -1.436872 7.627394 -6.657506
1305031226.055986 -1.436872 7.627394 -6.657506
1305031226.059611 -1.388976 7.435812 -6.465923
1305031226.060606 -1.388976 7.435812 -6.465923
1305031226.061781 -1.388976 7.435812 -6.465923
1305031226.065009 -1.436872 7.435812 -5.986966
1305031226.066120 -1.436872 7.435812 -5.986966
1305031226.069776 -1.137524 7.435812 -5.795383
1305031226.070755 -1.137524 7.435812 -5.795383
1305031226.072026 -1.137524 7.435812 -5.795383
1305031226.073024 -1.137524 7.435812 -5.795383
1305031226.076156 -1.053706 7.627394 -5.508009
1305031226.077119 -1.053706 7.627394 -5.508009
1305031226.080778 -1.089628 7.639368 -5.508009
1305031226.081758 -1.089628 7.639368 -5.508009
1305031226.085024 -1.245289 7.579499 -5.412217
1305031226.086031 -1.245289 7.579499 -5.412217
1305031226.089613 -1.245289 7.531603 -5.316426
1305031226.090730 -1.245289 7.531603 -5.316426
1305031226.091731 -1.245289 7.531603 -5.316426
1305031226.095148 -1.245289 7.268176 -5.699591
1305031226.096151 -1.245289 7.268176 -5.699591
1305031226.099814 -1.341080 7.148437 -5.795383
1305031226.100759 -1.341080 7.148437 -5.795383
1305031226.102007 -1.341080 7.148437 -5.795383
1305031226.103027 -1.341080 7.148437 -5.795383
1305031226.106133 -1.436872 7.052646 -5.603800
1305031226.107135 -1.436872 7.052646 -5.603800
1305031226.110736 -1.448846 7.244229 -5.795383
1305031226.111754 -1.448846 7.244229 -5.795383
1305031226.115118 -1.436872 7.148437 -6.274340
1305031226.116148 -1.436872 7.148437 -6.274340
1305031226.119731 -1.616481 7.244229 -6.178549
1305031226.120723 -1.616481 7.244229 -6.178549
1305031226.121968 -1.616481 7.244229 -6.178549
1305031226.122974 -1.616481 7.244229 -6.178549
1305031226.126193 -1.796090 7.292124 -6.274340
1305031226.127146 -1.796090 7.292124 -6.274340
1305031226.130759 -1.808064 7.256203 -5.891174
1305031226.131893 -1.808064 7.256203 -5.891174
1305031226.134985 -1.832012 7.435812 -5.891174
1305031226.135999 -1.832012 7.435812 -5.891174
1305031226.139642 -2.011621 7.627394 -6.082757
1305031226.140613 -2.011621 7.627394 -6.082757
1305031226.141879 -2.011621 7.627394 -6.082757
1305031226.143017 -2.011621 7.627394 -6.082757
1305031226.146154 -1.820038 7.818977 -6.082757
1305031226.147139 -1.820038 7.818977 -6.082757
1305031226.150727 -2.011621 7.818977 -6.082757
1305031226.151808 -2.011621 7.818977 -6.082757
1305031226.154975 -2.179256 8.010560 -6.082757
1305031226.155972 -2.179256 8.010560 -6.082757
1305031226.159599 -2.203203 7.914769 -5.891174
1305031226.160592 -2.203203 7.914769 -5.891174
1305031226.162017 -2.203203 7.914769 -5.891174
1305031226.163023 -2.203203 7.914769 -5.891174
1305031226.166112 -2.203203 7.818977 -5.891174
1305031226.167142 -2.203203 7.818977 -5.891174
1305031226.170753 -2.203203 7.651342 -5.508009
1305031226.171732 -2.203203 7.651342 -5.508009
1305031226.175025 -2.179256 7.627394 -5.412217
1305031226.176014 -2.179256 7.627394 -5.412217
1305031226.179619 -2.011621 7.435812 -5.555904
1305031226.180616 -2.011621 7.435812 -5.555904
1305031226.181878 -2.011621 7.435812 -5.555904
1305031226.182996 -2.011621 7.435812 -5.555904
1305031226.186218 -2.203203 7.244229 -5.699591
1305031226.187104 -2.203203 7.244229 -5.699591
1305031226.190751 -2.239125 7.244229 -5.891174
1305031226.191867 -2.239125 7.244229 -5.891174
1305031226.195023 -2.203203 7.052646 -5.891174
1305031226.196005 -2.203203 7.052646 -5.891174
1305031226.199619 -2.203203 7.052646 -6.178549
1305031226.200601 -2.203203 7.052646 -6.178549
1305031226.202011 -2.203203 7.052646 -6.178549
1305031226.203006 -2.203203 7.052646 -6.178549
1305031226.206148 -2.203203 7.052646 -6.286314
1305031226.207134 -2.203203 7.052646 -6.286314
1305031226.210747 -2.382812 6.861063 -6.274340
1305031226.211758 -2.382812 6.861063 -6.274340
1305031226.214989 -2.586369 7.148437 -6.274340
1305031226.216138 -2.586369 7.148437 -6.274340
1305031226.219587 -2.586369 7.148437 -6.274340
1305031226.220709 -2.586369 7.148437 -6.274340
1305031226.221950 -2.586369 7.148437 -6.274340
1305031226.222959 -2.586369 7.148437 -6.274340
1305031226.226136 -2.777952 7.244229 -6.178549
1305031226.227113 -2.777952 7.244229 -6.178549
1305031226.230882 -2.777952 7.531603 -5.891174
1305031226.231735 -2.777952 7.531603 -5.891174
1305031226.234958 -2.777952 7.627394 -5.555904
1305031226.236255 -2.777952 7.627394 -5.555904
1305031226.239752 -2.969535 7.818977 -5.316426
1305031226.240741 -2.969535 7.818977 -5.316426
1305031226.241985 -2.969535 7.818977 -5.316426
1305031226.242986 -2.969535 7.818977 -5.316426
1305031226.246128 -2.957561 7.818977 -5.124843
1305031226.247117 -2.957561 7.818977 -5.124843
1305031226.250713 -2.969535 8.010560 -4.837468
1305031226.251915 -2.969535 8.010560 -4.837468
1305031226.254986 -2.921639 8.010560 -4.741677
1305031226.256003 -2.921639 8.010560 -4.741677
1305031226.259580 -2.969535 7.998586 -4.645885
1305031226.260585 -2.969535 7.998586 -4.645885
1305031226.261900 -2.969535 7.998586 -4.645885
1305031226.263037 -2.969535 7.998586 -4.645885
1305031226.266091 -3.005457 7.818977 -4.741677
1305031226.267134 -3.005457 7.818977 -4.741677
1305031226.270708 -3.149144 7.531603 -4.933260
1305031226.271749 -3.149144 7.531603 -4.933260
1305031226.274983 -3.149144 7.244229 -5.112869
1305031226.276127 -3.149144 7.244229 -5.112869
1305031226.279592 -3.053353 7.244229 -5.220634
1305031226.280756 -3.053353 7.244229 -5.220634
1305031226.281995 -3.053353 7.244229 -5.220634
1305031226.282998 -3.053353 7.244229 -5.220634
1305031226.286126 -3.053353 7.052646 -5.316426
1305031226.287086 -3.053353 7.052646 -5.316426
1305031226.290711 -3.149144 6.956854 -5.603800
1305031226.291699 -3.149144 6.956854 -5.603800
1305031226.295003 -3.328753 6.956854 -5.508009
1305031226.295988 -3.328753 6.956854 -5.508009
1305031226.299576 -3.340727 7.244229 -5.519982
1305031226.300611 -3.340727 7.244229 -5.519982
1305031226.302000 -3.340727 7.244229 -5.519982
1305031226.302995 -3.340727 7.244229 -5.519982
1305031226.306118 -3.340727 7.244229 -5.699591
1305031226.307102 -3.340727 7.244229 -5.699591
1305031226.310722 -3.340727 7.292124 -5.891174
1305031226.311723 -3.340727 7.292124 -5.891174
1305031226.314992 -3.544284 7.256203 -5.939070
1305031226.315991 -3.544284 7.256203 -5.939070
1305031226.319582 -3.544284 7.292124 -5.891174
1305031226.320569 -3.544284 7.292124 -5.891174
1305031226.321829 -3.544284 7.292124 -5.891174
1305031226.322829 -3.544284 7.292124 -5.891174
1305031226.326129 -3.723893 7.340020 -5.603800
1305031226.327115 -3.723893 7.340020 -5.603800
1305031226.330724 -3.640075 7.531603 -5.316426
1305031226.331862 -3.640075 7.531603 -5.316426
1305031226.334949 -3.640075 7.579499 -5.316426
1305031226.335986 -3.640075 7.579499 -5.316426
1305031226.339576 -3.640075 7.435812 -5.124843
1305031226.340577 -3.640075 7.435812 -5.124843
1305031226.341864 -3.640075 7.435812 -5.124843
1305031226.342848 -3.640075 7.435812 -5.124843
1305031226.346098 -3.640075 7.435812 -4.741677
1305031226.347240 -3.640075 7.435812 -4.741677
1305031226.350738 -3.544284 7.244229 -4.550094
1305031226.351774 -3.544284 7.244229 -4.550094
1305031226.354953 -3.723893 7.292124 -4.166928
1305031226.356064 -3.723893 7.292124 -4.166928
1305031226.359567 -3.687971 7.340020 -3.999293
1305031226.360690 -3.687971 7.340020 -3.999293
1305031226.362000 -3.687971 7.340020 -3.999293
1305031226.362972 -3.687971 7.340020 -3.999293
1305031226.366079 -3.544284 7.244229 -4.166928
1305031226.367093 -3.544284 7.244229 -4.166928
1305031226.370725 -3.711919 7.244229 -4.454303
1305031226.371830 -3.711919 7.244229 -4.454303
1305031226.374984 -3.747841 7.244229 -4.645885
1305031226.375985 -3.747841 7.244229 -4.645885
1305031226.379578 -3.819684 7.148437 -4.741677
1305031226.380582 -3.819684 7.148437 -4.741677
1305031226.381842 -3.819684 7.148437 -4.741677
1305031226.382965 -3.819684 7.148437 -4.741677
1305031226.386093 -3.915476 6.956854 -5.029051
1305031226.387074 -3.915476 6.956854 -5.029051
1305031226.390818 -4.023241 6.956854 -5.412217
1305031226.391811 -4.023241 6.956854 -5.412217
1305031226.394987 -4.071137 7.052646 -5.519982
1305031226.395965 -4.071137 7.052646 -5.519982
1305031226.397588 -4.071137 7.052646 -5.519982
1305031226.400768 -4.154954 7.244229 -5.508009
1305031226.401880 -4.154954 7.244229 -5.508009
1305031226.404978 -4.154954 7.340020 -5.531956
1305031226.405966 -4.154954 7.340020 -5.531956
1305031226.409234 -4.310615 7.435812 -5.531956
1305031226.410568 -4.310615 7.435812 -5.531956
1305031226.411853 -4.310615 7.435812 -5.531956
1305031226.412853 -4.310615 7.435812 -5.531956
1305031226.416097 -4.490224 7.603447 -5.412217
1305031226.417090 -4.490224 7.603447 -5.412217
1305031226.420562 -4.490224 7.435812 -5.316426
1305031226.421685 -4.490224 7.435812 -5.316426
1305031226.424846 -4.310615 7.603447 -5.172738
1305031226.425979 -4.310615 7.603447 -5.172738
1305031226.427230 -4.310615 7.603447 -5.172738
1305031226.428471 -4.310615 7.603447 -5.172738
1305031226.431851 -4.119032 7.627394 -5.124843
1305031226.432852 -4.119032 7.627394 -5.124843
1305031226.436069 -4.119032 7.627394 -5.029051
1305031226.437102 -4.119032 7.627394 -5.029051
1305031226.440712 -4.095085 7.340020 -4.837468
1305031226.441707 -4.095085 7.340020 -4.837468
1305031226.444996 -3.915476 7.244229 -4.741677
1305031226.445943 -3.915476 7.244229 -4.741677
1305031226.449602 -3.915476 7.052646 -4.550094
1305031226.450562 -3.915476 7.052646 -4.550094
1305031226.451870 -3.915476 7.052646 -4.550094
1305031226.452851 -3.915476 7.052646 -4.550094
1305031226.456059 -3.735867 6.861063 -4.645885
1305031226.457055 -3.735867 6.861063 -4.645885
1305031226.460546 -4.023241 6.861063 -4.550094
1305031226.461721 -4.023241 6.861063 -4.550094
1305031226.464972 -4.071137 6.765271 -4.550094
1305031226.465971 -4.071137 6.765271 -4.550094
1305031226.469623 -4.119032 6.669480 -4.741677
1305031226.470560 -4.119032 6.669480 -4.741677
1305031226.471848 -4.119032 6.669480 -4.741677
1305031226.472844 -4.119032 6.669480 -4.741677
1305031226.476090 -4.023241 6.477897 -4.837468
1305031226.477098 -4.023241 6.477897 -4.837468
1305031226.480721 -4.119032 6.477897 -5.136817
1305031226.481704 -4.119032 6.477897 -5.136817
1305031226.484953 -4.107059 6.573688 -5.316426
1305031226.485955 -4.107059 6.573688 -5.316426
1305031226.489557 -4.023241 6.669480 -5.508009
1305031226.490554 -4.023241 6.669480 -5.508009
1305031226.491801 -4.023241 6.669480 -5.508009
1305031226.492833 -4.023241 6.669480 -5.508009
1305031226.496105 -4.406407 7.052646 -5.603800
1305031226.497107 -4.406407 7.052646 -5.603800
1305031226.500551 -4.490224 7.244229 -5.699591
1305031226.501718 -4.490224 7.244229 -5.699591
1305031226.504968 -4.502198 7.340020 -5.939070
1305031226.506088 -4.502198 7.340020 -5.939070
1305031226.509607 -4.789573 7.435812 -5.986966
1305031226.510567 -4.789573 7.435812 -5.986966
1305031226.511877 -4.789573 7.435812 -5.986966
1305031226.512818 -4.789573 7.435812 -5.986966
1305031226.516097 -4.837468 7.627394 -5.891174
1305031226.517107 -4.837468 7.627394 -5.891174
1305031226.520677 -4.681807 7.627394 -5.603800
1305031226.521717 -4.681807 7.627394 -5.603800
1305031226.524960 -4.502198 7.627394 -5.699591
1305031226.525953 -4.502198 7.627394 -5.699591
1305031226.529571 -4.538120 7.651342 -5.508009
1305031226.530553 -4.538120 7.651342 -5.508009
1305031226.531847 -4.538120 7.651342 -5.508009
1305031226.532947 -4.538120 7.651342 -5.508009
1305031226.536057 -4.586016 7.914769 -5.124843
1305031226.537093 -4.586016 7.914769 -5.124843
1305031226.540676 -4.502198 8.010560 -4.933260
1305031226.541681 -4.502198 8.010560 -4.933260
1305031226.544933 -4.490224 7.818977 -5.100895
1305031226.545925 -4.490224 7.818977 -5.100895
1305031226.549567 -4.681807 7.651342 -5.124843
1305031226.550547 -4.681807 7.651342 -5.124843
1305031226.551811 -4.681807 7.651342 -5.124843
1305031226.552801 -4.681807 7.651342 -5.124843
1305031226.556043 -4.681807 7.579499 -5.316426
1305031226.557035 -4.681807 7.579499 -5.316426
1305031226.560680 -4.837468 7.292124 -5.412217
1305031226.561861 -4.837468 7.292124 -5.412217
1305031226.564943 -4.885364 7.244229 -5.316426
1305031226.565912 -4.885364 7.244229 -5.316426
1305031226.569588 -4.885364 7.196333 -5.508009
1305031226.570547 -4.885364 7.196333 -5.508009
1305031226.571832 -4.885364 7.196333 -5.508009
1305031226.572831 -4.885364 7.196333 -5.508009
1305031226.575928 -4.969182 7.052646 -5.508009
1305031226.577077 -4.969182 7.052646 -5.508009
1305031226.580549 -4.921286 7.052646 -5.124843
1305031226.581673 -4.921286 7.052646 -5.124843
1305031226.584939 -4.897338 7.052646 -4.933260
1305031226.586083 -4.897338 7.052646 -4.933260
1305031226.589536 -4.873390 7.148437 -4.741677
1305031226.590542 -4.873390 7.148437 -4.741677
1305031226.591785 -4.873390 7.148437 -4.741677
1305031226.592957 -4.873390 7.148437 -4.741677
1305031226.596079 -4.873390 7.196333 -4.358511
1305031226.597076 -4.873390 7.196333 -4.358511
1305031226.600703 -4.681807 7.148437 -4.382459
1305031226.601689 -4.681807 7.148437 -4.382459
1305031226.604940 -4.789573 7.052646 -4.023241
1305031226.606082 -4.789573 7.052646 -4.023241
1305031226.609736 -4.885364 7.232255 -3.783762
1305031226.610694 -4.885364 7.232255 -3.783762
1305031226.611952 -4.885364 7.232255 -3.783762
1305031226.612952 -4.885364 7.232255 -3.783762
1305031226.616080 -4.789573 7.052646 -3.879554
1305031226.617076 -4.789573 7.052646 -3.879554
1305031226.620826 -4.873390 7.148437 -3.544284
1305031226.621831 -4.873390 7.148437 -3.544284
1305031226.624906 -4.861416 6.908959 -3.592179
1305031226.625909 -4.861416 6.908959 -3.592179
1305031226.629564 -4.969182 7.052646 -3.544284
1305031226.630541 -4.969182 7.052646 -3.544284
1305031226.631809 -4.969182 7.052646 -3.544284
1305031226.632807 -4.969182 7.052646 -3.544284
1305031226.636078 -4.873390 7.052646 -3.687971
1305031226.637040 -4.873390 7.052646 -3.687971
1305031226.640584 -4.789573 7.148437 -3.592179
1305031226.641668 -4.789573 7.148437 -3.592179
1305031226.644948 -4.873390 7.220281 -3.783762
1305031226.645951 -4.873390 7.220281 -3.783762
1305031226.649577 -5.076947 7.232255 -4.071137
1305031226.650569 -5.076947 7.232255 -4.071137
1305031226.651806 -5.076947 7.232255 -4.071137
1305031226.652845 -5.076947 7.232255 -4.071137
1305031226.656039 -5.076947 7.052646 -4.358511
1305031226.657033 -5.076947 7.052646 -4.358511
1305031226.660686 -5.268530 6.873037 -4.406407
1305031226.661681 -5.268530 6.873037 -4.406407
1305031226.664932 -5.268530 6.861063 -4.262720
1305031226.665930 -5.268530 6.861063 -4.262720
1305031226.669570 -5.076947 7.052646 -4.166928
1305031226.670533 -5.076947 7.052646 -4.166928
1305031226.671806 -5.076947 7.052646 -4.166928
1305031226.672801 -5.076947 7.052646 -4.166928
1305031226.676069 -4.969182 7.052646 -4.310615
1305031226.677070 -4.969182 7.052646 -4.310615
1305031226.680723 -4.837468 7.244229 -4.166928
1305031226.681674 -4.837468 7.244229 -4.166928
1305031226.684945 -4.586016 7.052646 -4.262720
1305031226.685902 -4.586016 7.052646 -4.262720
1305031226.689534 -4.837468 7.052646 -4.358511
1305031226.690527 -4.837468 7.052646 -4.358511
1305031226.691778 -4.837468 7.052646 -4.358511
1305031226.692806 -4.837468 7.052646 -4.358511
1305031226.696021 -4.789573 6.813167 -4.550094
1305031226.697038 -4.789573 6.813167 -4.550094
1305031226.700660 -4.681807 6.669480 -4.741677
1305031226.701663 -4.681807 6.669480 -4.741677
1305031226.704910 -4.586016 6.813167 -4.933260
1305031226.705910 -4.586016 6.813167 -4.933260
1305031226.709569 -4.538120 6.861063 -5.076947
1305031226.710521 -4.538120 6.861063 -5.076947
1305031226.711813 -4.538120 6.861063 -5.076947
1305031226.712795 -4.538120 6.861063 -5.076947
1305031226.716094 -4.681807 7.052646 -5.508009
1305031226.717062 -4.681807 7.052646 -5.508009
1305031226.720529 -4.538120 7.531603 -5.891174
1305031226.721686 -4.538120 7.531603 -5.891174
1305031226.724769 -4.873390 7.723186 -6.082757
1305031226.725901 -4.873390 7.723186 -6.082757
1305031226.727398 -4.873390 7.723186 -6.082757
1305031226.728399 -4.873390 7.723186 -6.082757
1305031226.731941 -4.969182 7.998586 -6.849089
1305031226.732935 -4.969182 7.998586 -6.849089
1305031226.736080 -5.256556 8.010560 -7.040672
1305031226.737062 -5.256556 8.010560 -7.040672
1305031226.740688 -5.280504 7.818977 -7.423838
1305031226.741685 -5.280504 7.818977 -7.423838
1305031226.744936 -5.627748 8.010560 -7.423838
1305031226.746057 -5.627748 8.010560 -7.423838
1305031226.749542 -5.651696 8.345830 -7.423838
1305031226.750522 -5.651696 8.345830 -7.423838
1305031226.751802 -5.651696 8.345830 -7.423838
1305031226.752979 -5.651696 8.345830 -7.423838
1305031226.756058 -5.651696 8.441622 -7.088568
1305031226.757019 -5.651696 8.441622 -7.088568
1305031226.760648 -5.651696 8.776892 -6.633558
1305031226.761799 -5.651696 8.776892 -6.633558
1305031226.764939 -5.627748 8.968475 -6.298288
1305031226.766068 -5.627748 8.968475 -6.298288
1305031226.769542 -5.268530 8.872683 -6.226444
1305031226.770520 -5.268530 8.872683 -6.226444
1305031226.771810 -5.268530 8.872683 -6.226444
1305031226.772930 -5.268530 8.872683 -6.226444
1305031226.776057 -5.280504 8.872683 -5.603800
1305031226.777060 -5.280504 8.872683 -5.603800
1305031226.780690 -5.268530 8.752944 -5.531956
1305031226.781815 -5.268530 8.752944 -5.531956
1305031226.784931 -5.172738 8.381752 -5.124843
1305031226.785919 -5.172738 8.381752 -5.124843
1305031226.789515 -4.873390 8.058456 -4.837468
1305031226.790510 -4.873390 8.058456 -4.837468
1305031226.791764 -4.873390 8.058456 -4.837468
1305031226.792785 -4.873390 8.058456 -4.837468
1305031226.796021 -4.586016 7.579499 -4.765625
1305031226.797059 -4.586016 7.579499 -4.765625
1305031226.800683 -4.490224 7.052646 -4.753651
1305031226.801660 -4.490224 7.052646 -4.753651
1305031226.804927 -4.490224 6.861063 -4.741677
1305031226.805913 -4.490224 6.861063 -4.741677
1305031226.809678 -4.310615 6.477897 -4.933260
1305031226.810650 -4.310615 6.477897 -4.933260
1305031226.811934 -4.310615 6.477897 -4.933260
1305031226.812924 -4.310615 6.477897 -4.933260
1305031226.816031 -3.915476 6.046835 -5.076947
1305031226.817034 -3.915476 6.046835 -5.076947
1305031226.820696 -3.819684 5.711565 -5.484061
1305031226.821806 -3.819684 5.711565 -5.484061
1305031226.824880 -3.723893 5.615774 -5.915122
1305031226.826037 -3.723893 5.615774 -5.915122
1305031226.829538 -3.915476 5.663670 -6.274340
1305031226.830646 -3.915476 5.663670 -6.274340
1305031226.831779 -3.915476 5.663670 -6.274340
1305031226.832924 -3.915476 5.663670 -6.274340
1305031226.835902 -4.119032 5.711565 -6.298288
1305031226.837017 -4.119032 5.711565 -6.298288
1305031226.840576 -4.502198 5.711565 -6.274340
1305031226.841674 -4.502198 5.711565 -6.274340
1305031226.844922 -4.873390 5.903148 -5.699591
1305031226.845903 -4.873390 5.903148 -5.699591
1305031226.849647 -4.681807 5.998940 -4.933260
1305031226.850641 -4.681807 5.998940 -4.933260
1305031226.851889 -4.681807 5.998940 -4.933260
1305031226.852928 -4.681807 5.998940 -4.933260
1305031226.856509 -4.202850 6.908959 -3.640075
1305031226.857645 -4.202850 6.908959 -3.640075
1305031226.861040 -3.819684 7.639368 -3.209014
1305031226.862060 -3.819684 7.639368 -3.209014
1305031226.865800 -3.544284 8.381752 -2.634265
1305031226.866755 -3.544284 8.381752 -2.634265
1305031226.870082 -3.340727 8.776892 -2.155308
1305031226.871029 -3.340727 8.776892 -2.155308
1305031226.874629 -3.340727 8.968475 -2.251099
1305031226.875696 -3.340727 8.968475 -2.251099
1305031226.876885 -3.340727 8.968475 -2.251099
1305031226.877909 -3.340727 8.968475 -2.251099
1305031226.881074 -2.969535 8.776892 -2.442682
1305031226.882081 -2.969535 8.776892 -2.442682
1305031226.885663 -2.957561 8.417674 -2.538474
1305031226.886660 -2.957561 8.417674 -2.538474
1305031226.890004 -2.586369 7.914769 -3.209014
1305031226.891000 -2.586369 7.914769 -3.209014
1305031226.894919 -2.538474 7.244229 -3.927450
1305031226.895873 -2.538474 7.244229 -3.927450
1305031226.897157 -2.538474 7.244229 -3.927450
1305031226.898504 -2.538474 7.244229 -3.927450
1305031226.902062 -2.203203 6.477897 -4.933260
1305031226.903058 -2.203203 6.477897 -4.933260
1305031226.906759 -2.179256 6.046835 -5.867226
1305031226.907779 -2.179256 6.046835 -5.867226
1305031226.911496 -2.107412 5.615774 -6.645532
1305031226.914617 -2.203203 5.519982 -7.136463
1305031226.915786 -2.203203 5.519982 -7.136463
1305031226.916884 -2.203203 5.519982 -7.136463
1305031226.918039 -2.203203 5.519982 -7.136463
1305031226.921632 -2.382812 5.711565 -8.285961
1305031226.922782 -2.382812 5.711565 -8.285961
1305031226.926005 -2.777952 5.711565 -8.669126
1305031226.927003 -2.777952 5.711565 -8.669126
1305031226.930665 -3.149144 5.759461 -9.052292
1305031226.931658 -3.149144 5.759461 -9.052292
1305031226.934893 -3.304805 5.998940 -8.860709
1305031226.936003 -3.304805 5.998940 -8.860709
1305031226.939638 -3.340727 6.477897 -8.285961
1305031226.940650 -3.340727 6.477897 -8.285961
1305031226.942025 -3.340727 6.477897 -8.285961
1305031226.943035 -3.340727 6.477897 -8.285961
1305031226.946527 -3.149144 7.196333 -7.040672
1305031226.947497 -3.149144 7.196333 -7.040672
1305031226.951046 -3.053353 7.435812 -5.891174
1305031226.952016 -3.053353 7.435812 -5.891174
1305031226.955745 -2.586369 8.393726 -4.741677
1305031226.956862 -2.586369 8.393726 -4.741677
1305031226.960652 -2.011621 8.968475 -3.975345
1305031226.961657 -2.011621 8.968475 -3.975345
1305031226.965030 -1.772142 9.351641 -3.209014
1305031226.966014 -1.772142 9.351641 -3.209014
1305031226.969680 -1.436872 9.567171 -3.113222
1305031226.970618 -1.436872 9.567171 -3.113222
1305031226.971890 -1.436872 9.567171 -3.113222
1305031226.972904 -1.436872 9.567171 -3.113222
1305031226.976012 -1.388976 9.255849 -3.209014
1305031226.977036 -1.388976 9.255849 -3.209014
1305031226.980663 -1.436872 8.776892 -3.640075
1305031226.981788 -1.436872 8.776892 -3.640075
1305031226.985011 -1.616481 7.818977 -4.550094
1305031226.986127 -1.616481 7.818977 -4.550094
1305031226.989876 -1.616481 7.148437 -5.316426
1305031226.990867 -1.616481 7.148437 -5.316426
1305031226.994763 -1.724246 6.465923 -6.226444
1305031226.995806 -1.724246 6.465923 -6.226444
1305031226.997025 -1.724246 6.465923 -6.226444
1305031226.998005 -1.724246 6.465923 -6.226444
1305031227.001791 -1.616481 5.998940 -7.232255
1305031227.002901 -1.616481 5.998940 -7.232255
1305031227.006008 -1.616481 5.903148 -7.818977
1305031227.007012 -1.616481 5.903148 -7.818977
1305031227.010619 -1.436872 6.094731 -8.381752
1305031227.011661 -1.436872 6.094731 -8.381752
1305031227.014907 -1.436872 6.286314 -8.573335
1305031227.015878 -1.436872 6.286314 -8.573335
1305031227.019486 -1.436872 6.430001 -8.669126
1305031227.020487 -1.436872 6.430001 -8.669126
1305031227.021891 -1.436872 6.430001 -8.669126
1305031227.022868 -1.436872 6.430001 -8.669126
1305031227.025992 -1.796090 6.861063 -8.573335
1305031227.026988 -1.796090 6.861063 -8.573335
1305031227.030774 -1.724246 7.052646 -8.381752
1305031227.031773 -1.724246 7.052646 -8.381752
1305031227.035023 -1.796090 7.244229 -7.998586
1305031227.035993 -1.796090 7.244229 -7.998586
1305031227.039784 -1.724246 7.818977 -7.471733
1305031227.040774 -1.724246 7.818977 -7.471733
1305031227.042006 -1.724246 7.818977 -7.471733
1305031227.043010 -1.724246 7.818977 -7.471733
1305031227.046639 -1.436872 8.393726 -7.040672
1305031227.047738 -1.436872 8.393726 -7.040672
1305031227.051028 -1.436872 8.585309 -6.465923
1305031227.052009 -1.436872 8.585309 -6.465923
1305031227.055737 -1.341080 8.776892 -5.986966
1305031227.056759 -1.341080 8.776892 -5.986966
1305031227.059860 -1.245289 8.776892 -5.699591
1305031227.060857 -1.245289 8.776892 -5.699591
1305031227.064481 -1.089628 8.681100 -5.555904
1305031227.065650 -1.089628 8.681100 -5.555904
1305031227.066642 -1.089628 8.681100 -5.555904
1305031227.069873 -1.041732 8.393726 -5.603800
1305031227.070898 -1.041732 8.393726 -5.603800
1305031227.074641 -0.850149 8.010560 -5.891174
1305031227.075652 -0.850149 8.010560 -5.891174
1305031227.076901 -0.850149 8.010560 -5.891174
1305031227.077884 -0.850149 8.010560 -5.891174
1305031227.081062 -0.658566 7.675290 -5.891174
1305031227.082037 -0.658566 7.675290 -5.891174
1305031227.085774 -0.658566 7.244229 -6.274340
1305031227.086737 -0.658566 7.244229 -6.274340
1305031227.089888 -0.478957 7.052646 -6.274340
1305031227.090858 -0.478957 7.052646 -6.274340
1305031227.094626 -0.275400 6.669480 -6.633558
1305031227.095663 -0.275400 6.669480 -6.633558
1305031227.096858 -0.275400 6.669480 -6.633558
1305031227.098011 -0.275400 6.669480 -6.633558
1305031227.101054 -0.275400 6.501845 -6.657506
1305031227.102032 -0.275400 6.501845 -6.657506
1305031227.105656 0.095791 6.465923 -6.561715
1305031227.106620 0.095791 6.465923 -6.561715
1305031227.109884 0.083818 6.477897 -6.657506
1305031227.111025 0.083818 6.477897 -6.657506
1305031227.114492 0.191583 6.477897 -6.465923
1305031227.115484 0.191583 6.477897 -6.465923
1305031227.116819 0.191583 6.477897 -6.465923
1305031227.117873 0.191583 6.477897 -6.465923
1305031227.121034 0.466983 6.525793 -6.465923
1305031227.121992 0.466983 6.525793 -6.465923
1305031227.125618 0.478957 6.813167 -6.370132
1305031227.126608 0.478957 6.813167 -6.370132
1305031227.129891 0.478957 6.861063 -6.465923
1305031227.130867 0.478957 6.861063 -6.465923
1305031227.134488 0.682514 7.052646 -6.274340
1305031227.135619 0.682514 7.052646 -6.274340
1305031227.136744 0.682514 7.052646 -6.274340
1305031227.137851 0.682514 7.052646 -6.274340
1305031227.140994 0.778306 7.244229 -6.226444
1305031227.141993 0.778306 7.244229 -6.226444
1305031227.145621 0.862123 7.435812 -6.082757
1305031227.146617 0.862123 7.435812 -6.082757
1305031227.149887 0.778306 7.579499 -6.274340
1305031227.150868 0.778306 7.579499 -6.274340
1305031227.154493 0.682514 7.627394 -6.274340
1305031227.155494 0.682514 7.627394 -6.274340
1305031227.156741 0.682514 7.627394 -6.274340
1305031227.157744 0.682514 7.627394 -6.274340
1305031227.160996 0.862123 7.244229 -6.274340
1305031227.162009 0.862123 7.244229 -6.274340
1305031227.165665 0.862123 7.244229 -6.274340
1305031227.166629 0.862123 7.244229 -6.274340
1305031227.169911 1.053706 7.148437 -6.082757
1305031227.170902 1.053706 7.148437 -6.082757
1305031227.174496 0.957915 6.885011 -5.903148
1305031227.175482 0.957915 6.885011 -5.903148
1305031227.176776 0.957915 6.885011 -5.903148
1305031227.177819 0.957915 6.885011 -5.903148
1305031227.181022 1.257263 6.861063 -5.699591
1305031227.182026 1.257263 6.861063 -5.699591
1305031227.185636 1.341080 6.573688 -5.843279
1305031227.186622 1.341080 6.573688 -5.843279
1305031227.189910 1.448846 6.477897 -5.508009
1305031227.190906 1.448846 6.477897 -5.508009
1305031227.194496 1.341080 6.525793 -5.508009
1305031227.195493 1.341080 6.525793 -5.508009
1305031227.196757 1.341080 6.525793 -5.508009
1305031227.197740 1.341080 6.525793 -5.508009
1305031227.201027 1.640429 6.477897 -5.316426
1305031227.202028 1.640429 6.477897 -5.316426
1305031227.205657 1.652403 6.477897 -5.316426
1305031227.206618 1.652403 6.477897 -5.316426
1305031227.209923 1.724246 6.477897 -5.316426
1305031227.210920 1.724246 6.477897 -5.316426
1305031227.214489 1.927803 6.477897 -5.124843
1305031227.215498 1.927803 6.477897 -5.124843
1305031227.216775 1.927803 6.477897 -5.124843
1305031227.217869 1.927803 6.477897 -5.124843
1305031227.220887 1.999647 6.669480 -5.124843
1305031227.222027 1.999647 6.669480 -5.124843
1305031227.225610 1.820038 6.861063 -4.933260
1305031227.226617 1.820038 6.861063 -4.933260
1305031227.230067 2.011621 6.861063 -5.316426
1305031227.231028 2.011621 6.861063 -5.316426
1305031227.234482 1.820038 6.849089 -5.508009
1305031227.235615 1.820038 6.849089 -5.508009
1305031227.236761 1.820038 6.849089 -5.508009
1305031227.237884 1.820038 6.849089 -5.508009
1305031227.241057 2.011621 7.052646 -5.939070
1305031227.242039 2.011621 7.052646 -5.939070
1305031227.245635 2.011621 7.148437 -5.891174
1305031227.246625 2.011621 7.148437 -5.891174
1305031227.249888 1.820038 7.244229 -6.082757
1305031227.250886 1.820038 7.244229 -6.082757
1305031227.254627 1.820038 7.148437 -6.370132
1305031227.255621 1.820038 7.148437 -6.370132
1305031227.256867 1.820038 7.148437 -6.370132
1305031227.257871 1.820038 7.148437 -6.370132
1305031227.261032 1.975699 7.148437 -6.849089
1305031227.262159 1.975699 7.148437 -6.849089
1305031227.265634 1.820038 7.244229 -6.753297
1305031227.266618 1.820038 7.244229 -6.753297
1305031227.269884 1.652403 7.244229 -6.657506
1305031227.270907 1.652403 7.244229 -6.657506
1305031227.274499 2.011621 7.148437 -6.849089
1305031227.275486 2.011621 7.148437 -6.849089
1305031227.276788 2.011621 7.148437 -6.849089
1305031227.277924 2.011621 7.148437 -6.849089
1305031227.281026 2.011621 7.220281 -6.753297
1305031227.282028 2.011621 7.220281 -6.753297
1305031227.285652 2.394786 7.052646 -6.681454
1305031227.286607 2.394786 7.052646 -6.681454
1305031227.289908 2.406760 7.148437 -6.657506
1305031227.290905 2.406760 7.148437 -6.657506
1305031227.294485 2.406760 7.148437 -6.633558
1305031227.295494 2.406760 7.148437 -6.633558
1305031227.296775 2.406760 7.148437 -6.633558
1305031227.297909 2.406760 7.148437 -6.633558
1305031227.301024 2.406760 7.052646 -6.657506
1305031227.302011 2.406760 7.052646 -6.657506
1305031227.305653 2.382812 7.052646 -6.849089
1305031227.306636 2.382812 7.052646 -6.849089
1305031227.309924 2.406760 6.908959 -6.849089
1305031227.310884 2.406760 6.908959 -6.849089
1305031227.314492 2.310969 6.861063 -7.040672
1305031227.315486 2.310969 6.861063 -7.040672
1305031227.316748 2.310969 6.861063 -7.040672
1305031227.317907 2.310969 6.861063 -7.040672
1305031227.321025 2.215177 7.052646 -7.471733
1305031227.322011 2.215177 7.052646 -7.471733
1305031227.325640 2.310969 7.148437 -7.519629
1305031227.326619 2.310969 7.148437 -7.519629
1305031227.329934 2.310969 7.052646 -7.711212
1305031227.331029 2.310969 7.052646 -7.711212
1305031227.334485 2.107412 7.148437 -7.615421
1305031227.335487 2.107412 7.148437 -7.615421
1305031227.336746 2.107412 7.148437 -7.615421
1305031227.337901 2.107412 7.148437 -7.615421
1305031227.340885 2.011621 7.292124 -7.615421
1305031227.342012 2.011621 7.292124 -7.615421
1305031227.345651 2.011621 7.531603 -7.615421
1305031227.346649 2.011621 7.531603 -7.615421
1305031227.349915 2.011621 7.627394 -7.423838
1305031227.350903 2.011621 7.627394 -7.423838
1305031227.354483 2.107412 7.723186 -7.328046
1305031227.355476 2.107412 7.723186 -7.328046
1305031227.356743 2.107412 7.723186 -7.328046
1305031227.357748 2.107412 7.723186 -7.328046
1305031227.361025 2.394786 7.818977 -7.232255
1305031227.362029 2.394786 7.818977 -7.232255
1305031227.365635 2.442682 7.914769 -7.040672
1305031227.366620 2.442682 7.914769 -7.040672
1305031227.369882 2.586369 7.818977 -7.052646
1305031227.370903 2.586369 7.818977 -7.052646
1305031227.374488 2.586369 7.627394 -7.040672
1305031227.375481 2.586369 7.627394 -7.040672
1305031227.376768 2.586369 7.627394 -7.040672
1305031227.377904 2.586369 7.627394 -7.040672
1305031227.381026 2.789926 7.244229 -7.040672
1305031227.382026 2.789926 7.244229 -7.040672
1305031227.385681 2.777952 7.148437 -7.040672
1305031227.386604 2.777952 7.148437 -7.040672
1305031227.389908 2.789926 6.861063 -7.423838
1305031227.390993 2.789926 6.861063 -7.423838
1305031227.394492 2.873744 6.669480 -7.232255
1305031227.395663 2.873744 6.669480 -7.232255
1305031227.396901 2.873744 6.669480 -7.232255
1305031227.397903 2.873744 6.669480 -7.232255
1305031227.401061 2.825848 6.430001 -7.519629
1305031227.402011 2.825848 6.430001 -7.519629
1305031227.405634 2.873744 6.286314 -7.615421
1305031227.406776 2.873744 6.286314 -7.615421
1305031227.409918 2.873744 6.286314 -7.423838
1305031227.411043 2.873744 6.286314 -7.423838
1305031227.414488 2.873744 6.286314 -7.519629
1305031227.415494 2.873744 6.286314 -7.519629
1305031227.416786 2.873744 6.286314 -7.519629
1305031227.417910 2.873744 6.286314 -7.519629
1305031227.421026 2.789926 6.525793 -7.423838
1305031227.422011 2.789926 6.525793 -7.423838
1305031227.425678 2.586369 6.813167 -7.232255
1305031227.426616 2.586369 6.813167 -7.232255
1305031227.429923 2.742030 6.861063 -7.136463
1305031227.430906 2.742030 6.861063 -7.136463
1305031227.434482 2.586369 7.244229 -7.232255
1305031227.435485 2.586369 7.244229 -7.232255
1305031227.436738 2.586369 7.244229 -7.232255
1305031227.437757 2.586369 7.244229 -7.232255
1305031227.441025 2.586369 7.435812 -7.040672
1305031227.442026 2.586369 7.435812 -7.040672
1305031227.445656 2.694135 7.340020 -7.136463
1305031227.446625 2.694135 7.340020 -7.136463
1305031227.450007 2.490578 7.627394 -6.657506
1305031227.450994 2.490578 7.627394 -6.657506
1305031227.454633 2.742030 7.603447 -6.657506
1305031227.455616 2.742030 7.603447 -6.657506
1305031227.456743 2.742030 7.603447 -6.657506
1305031227.457867 2.742030 7.603447 -6.657506
1305031227.461002 2.825848 7.627394 -6.370132
1305031227.461994 2.825848 7.627394 -6.370132
1305031227.465636 2.981509 7.627394 -6.082757
1305031227.466641 2.981509 7.627394 -6.082757
1305031227.469894 3.149144 7.531603 -6.178549
1305031227.470887 3.149144 7.531603 -6.178549
1305031227.474482 3.209014 7.292124 -6.226444
1305031227.475493 3.209014 7.292124 -6.226444
1305031227.476733 3.209014 7.292124 -6.226444
1305031227.477901 3.209014 7.292124 -6.226444
1305031227.481024 3.460466 6.956854 -6.082757
1305031227.482025 3.460466 6.956854 -6.082757
1305031227.485656 3.640075 6.837115 -5.986966
1305031227.486638 3.640075 6.837115 -5.986966
1305031227.490031 3.927450 6.477897 -6.082757
1305031227.491027 3.927450 6.477897 -6.082757
1305031227.494636 3.891528 6.477897 -5.891174
1305031227.495640 3.891528 6.477897 -5.891174
1305031227.496911 3.891528 6.477897 -5.891174
1305031227.497884 3.891528 6.477897 -5.891174
1305031227.501062 3.927450 6.094731 -5.939070
1305031227.502037 3.927450 6.094731 -5.939070
1305031227.505652 3.975345 6.070783 -5.891174
1305031227.506652 3.975345 6.070783 -5.891174
1305031227.509884 3.640075 6.094731 -5.867226
1305031227.510910 3.640075 6.094731 -5.867226
1305031227.512397 3.640075 6.094731 -5.867226
1305031227.513508 3.640075 6.094731 -5.867226
1305031227.516732 3.843632 6.082757 -6.082757
1305031227.517760 3.843632 6.082757 -6.082757
1305031227.521026 3.544284 6.286314 -5.891174
1305031227.522159 3.544284 6.286314 -5.891174
1305031227.525616 3.544284 6.477897 -5.891174
1305031227.526746 3.544284 6.477897 -5.891174
1305031227.529906 3.747841 6.837115 -5.903148
1305031227.531056 3.747841 6.837115 -5.903148
1305031227.534636 3.747841 7.052646 -5.795383
1305031227.535650 3.747841 7.052646 -5.795383
1305031227.536866 3.747841 7.052646 -5.795383
1305031227.537903 3.747841 7.052646 -5.795383
1305031227.541023 3.640075 7.148437 -5.519982
1305031227.542008 3.640075 7.148437 -5.519982
1305031227.545637 3.508362 7.244229 -5.124843
1305031227.546665 3.508362 7.244229 -5.124843
1305031227.549916 3.747841 7.340020 -5.124843
1305031227.550885 3.747841 7.340020 -5.124843
1305031227.554495 3.544284 7.531603 -5.124843
1305031227.555498 3.544284 7.531603 -5.124843
1305031227.556725 3.544284 7.531603 -5.124843
1305031227.557755 3.544284 7.531603 -5.124843
1305031227.560886 3.747841 7.627394 -5.124843
1305031227.562027 3.747841 7.627394 -5.124843
1305031227.565518 3.843632 7.675290 -5.124843
1305031227.566645 3.843632 7.675290 -5.124843
1305031227.569885 3.891528 7.627394 -5.029051
1305031227.570912 3.891528 7.627394 -5.029051
1305031227.572008 3.891528 7.627394 -5.029051
1305031227.573152 3.891528 7.627394 -5.029051
1305031227.576637 4.023241 7.435812 -5.124843
1305031227.577807 4.023241 7.435812 -5.124843
1305031227.581026 4.023241 7.340020 -5.029051
1305031227.582030 4.023241 7.340020 -5.029051
1305031227.585680 4.322589 7.244229 -4.933260
1305031227.586607 4.322589 7.244229 -4.933260
1305031227.589910 4.358511 7.220281 -4.741677
1305031227.590873 4.358511 7.220281 -4.741677
1305031227.594522 4.514172 6.956854 -4.550094
1305031227.595555 4.514172 6.956854 -4.550094
1305031227.596782 4.514172 6.956854 -4.550094
1305031227.597901 4.514172 6.956854 -4.550094
1305031227.601010 4.514172 6.813167 -4.693781
1305031227.602032 4.514172 6.813167 -4.693781
1305031227.605663 4.514172 6.669480 -4.550094
1305031227.606618 4.514172 6.669480 -4.550094
1305031227.609886 4.609964 6.669480 -4.406407
1305031227.610882 4.609964 6.669480 -4.406407
1305031227.614482 4.741677 6.477897 -4.550094
1305031227.615487 4.741677 6.477897 -4.550094
1305031227.616787 4.741677 6.477897 -4.550094
1305031227.617897 4.741677 6.477897 -4.550094
1305031227.621027 4.741677 6.477897 -4.358511
1305031227.622027 4.741677 6.477897 -4.358511
1305031227.625684 4.789573 6.477897 -4.358511
1305031227.626607 4.789573 6.477897 -4.358511
1305031227.629923 4.885364 6.477897 -4.166928
1305031227.630885 4.885364 6.477897 -4.166928
1305031227.634490 4.993129 6.477897 -4.023241
1305031227.635504 4.993129 6.477897 -4.023241
1305031227.636812 4.993129 6.477897 -4.023241
1305031227.637902 4.993129 6.477897 -4.023241
1305031227.641010 5.088921 6.525793 -4.166928
1305031227.642029 5.088921 6.525793 -4.166928
1305031227.645681 5.280504 6.477897 -4.023241
1305031227.646613 5.280504 6.477897 -4.023241
1305031227.649895 5.280504 6.525793 -4.071137
1305031227.650908 5.280504 6.525793 -4.071137
1305031227.654489 5.376295 6.573688 -3.975345
1305031227.655500 5.376295 6.573688 -3.975345
1305031227.656741 5.376295 6.573688 -3.975345
1305031227.657747 5.376295 6.573688 -3.975345
1305031227.660886 5.280504 6.669480 -3.879554
1305031227.662013 5.280504 6.669480 -3.879554
1305031227.665638 5.172738 6.765271 -3.879554
1305031227.666620 5.172738 6.765271 -3.879554
1305031227.669887 5.172738 6.669480 -3.879554
1305031227.670902 5.172738 6.669480 -3.879554
1305031227.674494 5.376295 6.861063 -3.975345
1305031227.675478 5.376295 6.861063 -3.975345
1305031227.676487 5.376295 6.861063 -3.975345
1305031227.679908 5.555904 7.052646 -3.975345
1305031227.680884 5.555904 7.052646 -3.975345
1305031227.684370 5.484061 7.148437 -3.975345
1305031227.685606 5.484061 7.148437 -3.975345
1305031227.686619 5.484061 7.148437 -3.975345
1305031227.689908 5.651696 6.908959 -4.358511
1305031227.690993 5.651696 6.908959 -4.358511
1305031227.694497 5.651696 6.849089 -4.382459
1305031227.695651 5.651696 6.849089 -4.382459
1305031227.696761 5.651696 6.849089 -4.382459
1305031227.697901 5.651696 6.849089 -4.382459
1305031227.701032 5.484061 6.861063 -4.645885
1305031227.702031 5.484061 6.861063 -4.645885
1305031227.705663 5.508009 6.669480 -4.454303
1305031227.706619 5.508009 6.669480 -4.454303
1305031227.709920 5.448139 6.849089 -4.406407
1305031227.710893 5.448139 6.849089 -4.406407
1305031227.714494 5.472087 6.669480 -4.454303
1305031227.715482 5.472087 6.669480 -4.454303
1305031227.716786 5.472087 6.669480 -4.454303
1305031227.717862 5.472087 6.669480 -4.454303
1305031227.721010 5.472087 6.837115 -4.310615
1305031227.722027 5.472087 6.837115 -4.310615
1305031227.725626 5.651696 6.861063 -4.071137
1305031227.726627 5.651696 6.861063 -4.071137
1305031227.729916 5.651696 6.908959 -3.975345
1305031227.731054 5.651696 6.908959 -3.975345
1305031227.734481 5.807357 6.885011 -3.975345
1305031227.735486 5.807357 6.885011 -3.975345
1305031227.736759 5.807357 6.885011 -3.975345
1305031227.737904 5.807357 6.885011 -3.975345
1305031227.740910 5.855253 6.861063 -3.999293
1305031227.742028 5.855253 6.861063 -3.999293
1305031227.745635 5.855253 6.861063 -4.166928
1305031227.746639 5.855253 6.861063 -4.166928
1305031227.749921 5.555904 6.669480 -4.071137
1305031227.750903 5.555904 6.669480 -4.071137
1305031227.752409 5.555904 6.669480 -4.071137
1305031227.755621 5.855253 6.286314 -4.166928
1305031227.756742 5.855253 6.286314 -4.166928
1305031227.759751 5.807357 6.094731 -4.071137
1305031227.760897 5.807357 6.094731 -4.071137
1305031227.762356 5.807357 6.094731 -4.071137
1305031227.763396 5.807357 6.094731 -4.071137
1305031227.766765 5.867226 6.094731 -4.071137
1305031227.767767 5.867226 6.094731 -4.071137
1305031227.771032 5.939070 6.142627 -4.166928
1305031227.772036 5.939070 6.142627 -4.166928
1305031227.775654 6.046835 6.142627 -4.166928
1305031227.776649 6.046835 6.142627 -4.166928
1305031227.779925 6.046835 6.190523 -4.262720
1305031227.780901 6.046835 6.190523 -4.262720
1305031227.784485 6.046835 6.382106 -4.071137
1305031227.785650 6.046835 6.382106 -4.071137
1305031227.786760 6.046835 6.382106 -4.071137
1305031227.787750 6.046835 6.382106 -4.071137
1305031227.791002 6.046835 6.477897 -4.166928
1305031227.792002 6.046835 6.477897 -4.166928
1305031227.795622 6.046835 6.477897 -4.550094
1305031227.796661 6.046835 6.477897 -4.550094
1305031227.799918 6.046835 6.477897 -4.454303
1305031227.800912 6.046835 6.477897 -4.454303
1305031227.804488 6.046835 6.477897 -4.741677
1305031227.805655 6.046835 6.477897 -4.741677
1305031227.806638 6.046835 6.477897 -4.741677
1305031227.809884 5.855253 6.669480 -4.741677
1305031227.810903 5.855253 6.669480 -4.741677
1305031227.814482 6.046835 6.501845 -4.837468
1305031227.815487 6.046835 6.501845 -4.837468
1305031227.816778 6.046835 6.501845 -4.837468
1305031227.817790 6.046835 6.501845 -4.837468
1305031227.821027 5.891174 6.669480 -4.741677
1305031227.822029 5.891174 6.669480 -4.741677
1305031227.825627 6.046835 6.669480 -4.693781
1305031227.826614 6.046835 6.669480 -4.693781
1305031227.829922 6.046835 6.573688 -4.358511
1305031227.830938 6.046835 6.573688 -4.358511
1305031227.832150 6.046835 6.573688 -4.358511
1305031227.833154 6.046835 6.573688 -4.358511
1305031227.836776 5.939070 6.669480 -4.166928
1305031227.837780 5.939070 6.669480 -4.166928
1305031227.841028 6.214471 6.573688 -4.071137
1305031227.842063 6.214471 6.573688 -4.071137
1305031227.845654 6.142627 6.573688 -3.783762
1305031227.846636 6.142627 6.573688 -3.783762
1305031227.849886 6.142627 6.669480 -3.604153
1305031227.850906 6.142627 6.669480 -3.604153
1305031227.854499 6.142627 6.501845 -3.783762
1305031227.855479 6.142627 6.501845 -3.783762
1305031227.856745 6.142627 6.501845 -3.783762
1305031227.857872 6.142627 6.501845 -3.783762
1305031227.861057 6.226444 6.477897 -3.400597
1305031227.862010 6.226444 6.477897 -3.400597
1305031227.865651 6.226444 6.430001 -3.304805
1305031227.866640 6.226444 6.430001 -3.304805
1305031227.869912 6.226444 6.286314 -3.304805
1305031227.870928 6.226444 6.286314 -3.304805
1305031227.874482 6.142627 6.190523 -3.209014
1305031227.875486 6.142627 6.190523 -3.209014
1305031227.876760 6.142627 6.190523 -3.209014
1305031227.877884 6.142627 6.190523 -3.209014
1305031227.880884 6.046835 6.142627 -3.209014
1305031227.882010 6.046835 6.142627 -3.209014
1305031227.885530 6.142627 6.094731 -3.209014
1305031227.886523 6.142627 6.094731 -3.209014
1305031227.889812 6.226444 5.903148 -3.209014
1305031227.890748 6.226444 5.903148 -3.209014
1305031227.891993 6.226444 5.903148 -3.209014
1305031227.892993 6.226444 5.903148 -3.209014
1305031227.896673 6.226444 6.046835 -3.017431
1305031227.897778 6.226444 6.046835 -3.017431
1305031227.900901 6.274340 6.094731 -3.017431
1305031227.902057 6.274340 6.094731 -3.017431
1305031227.905525 6.418027 6.190523 -3.017431
1305031227.906529 6.418027 6.190523 -3.017431
1305031227.909919 6.418027 6.286314 -3.209014
1305031227.910932 6.418027 6.286314 -3.209014
1305031227.912008 6.418027 6.286314 -3.209014
1305031227.913152 6.418027 6.286314 -3.209014
1305031227.916682 6.322236 6.477897 -3.400597
1305031227.917777 6.322236 6.477897 -3.400597
1305031227.921010 6.322236 6.430001 -3.640075
1305031227.922012 6.322236 6.430001 -3.640075
1305031227.925629 6.238418 6.477897 -3.783762
1305031227.926604 6.238418 6.477897 -3.783762
1305031227.929922 6.418027 6.382106 -3.975345
1305031227.931065 6.418027 6.382106 -3.975345
1305031227.934482 6.226444 6.477897 -3.975345
1305031227.935485 6.226444 6.477897 -3.975345
1305031227.936774 6.226444 6.477897 -3.975345
1305031227.937903 6.226444 6.477897 -3.975345
1305031227.940869 6.226444 6.489871 -4.071137
1305031227.942037 6.226444 6.489871 -4.071137
1305031227.945651 6.046835 6.573688 -4.262720
1305031227.946635 6.046835 6.573688 -4.262720
1305031227.949920 5.867226 6.837115 -3.963371
1305031227.951013 5.867226 6.837115 -3.963371
1305031227.954489 6.046835 6.861063 -3.783762
1305031227.955620 6.046835 6.861063 -3.783762
1305031227.956741 6.046835 6.861063 -3.783762
1305031227.957869 6.046835 6.861063 -3.783762
1305031227.961019 6.046835 6.861063 -3.783762
1305031227.962029 6.046835 6.861063 -3.783762
1305031227.965661 6.142627 6.908959 -3.640075
1305031227.966614 6.142627 6.908959 -3.640075
1305031227.969908 5.939070 7.052646 -3.496388
1305031227.971064 5.939070 7.052646 -3.496388
1305031227.974636 6.142627 7.052646 -3.209014
1305031227.975652 6.142627 7.052646 -3.209014
1305031227.976896 6.142627 7.052646 -3.209014
1305031227.977892 6.142627 7.052646 -3.209014
1305031227.980913 6.142627 7.148437 -3.209014
1305031227.982028 6.142627 7.148437 -3.209014
1305031227.985651 6.142627 7.052646 -3.209014
1305031227.986616 6.142627 7.052646 -3.209014
1305031227.989913 6.046835 6.861063 -3.209014
1305031227.990873 6.046835 6.861063 -3.209014
1305031227.994486 6.226444 6.669480 -3.400597
1305031227.995491 6.226444 6.669480 -3.400597
1305031227.996760 6.226444 6.669480 -3.400597
1305031227.997902 6.226444 6.669480 -3.400597
1305031228.001070 6.046835 6.573688 -3.232962
1305031228.002028 6.046835 6.573688 -3.232962
1305031228.005690 6.142627 6.477897 -3.400597
1305031228.006639 6.142627 6.477897 -3.400597
1305031228.009924 5.939070 6.525793 -3.544284
1305031228.010884 5.939070 6.525793 -3.544284
1305031228.014482 5.891174 6.573688 -3.496388
1305031228.015533 5.891174 6.573688 -3.496388
1305031228.016776 5.891174 6.573688 -3.496388
1305031228.017900 5.891174 6.573688 -3.496388
1305031228.021027 6.046835 6.477897 -3.568232
1305031228.022040 6.046835 6.477897 -3.568232
1305031228.025628 6.046835 6.382106 -3.592179
1305031228.026609 6.046835 6.382106 -3.592179
1305031228.029886 6.046835 6.286314 -3.592179
1305031228.030939 6.046835 6.286314 -3.592179
1305031228.034494 6.190523 6.190523 -3.687971
1305031228.035498 6.190523 6.190523 -3.687971
1305031228.036776 6.190523 6.190523 -3.687971
1305031228.037887 6.190523 6.190523 -3.687971
1305031228.041027 6.142627 6.382106 -3.879554
1305031228.042030 6.142627 6.382106 -3.879554
1305031228.045511 6.046835 6.453949 -3.879554
1305031228.046627 6.046835 6.453949 -3.879554
1305031228.049746 5.855253 6.477897 -3.879554
1305031228.050872 5.855253 6.477897 -3.879554
1305031228.051997 5.855253 6.477897 -3.879554
1305031228.053122 5.855253 6.477897 -3.879554
1305031228.056664 5.855253 6.525793 -3.975345
1305031228.057750 5.855253 6.525793 -3.975345
1305031228.060902 5.867226 6.477897 -3.975345
1305031228.062030 5.867226 6.477897 -3.975345
1305031228.065654 5.855253 6.573688 -3.879554
1305031228.066641 5.855253 6.573688 -3.879554
1305031228.069886 5.939070 6.669480 -3.975345
1305031228.070951 5.939070 6.669480 -3.975345
1305031228.072007 5.939070 6.669480 -3.975345
1305031228.073135 5.939070 6.669480 -3.975345
1305031228.076809 6.046835 6.477897 -4.023241
1305031228.077791 6.046835 6.477897 -4.023241
1305031228.081056 6.046835 6.525793 -4.166928
1305031228.082057 6.046835 6.525793 -4.166928
1305031228.085650 5.939070 6.573688 -4.358511
1305031228.086622 5.939070 6.573688 -4.358511
1305031228.089891 5.939070 6.477897 -4.454303
1305031228.090874 5.939070 6.477897 -4.454303
1305031228.094488 5.807357 6.861063 -4.358511
1305031228.095621 5.807357 6.861063 -4.358511
1305031228.096932 5.807357 6.861063 -4.358511
1305031228.097905 5.807357 6.861063 -4.358511
1305031228.101056 5.759461 6.669480 -4.358511
1305031228.102056 5.759461 6.669480 -4.358511
1305031228.105681 5.651696 6.765271 -4.358511
1305031228.106642 5.651696 6.765271 -4.358511
1305031228.109880 5.555904 6.573688 -4.358511
1305031228.110930 5.555904 6.573688 -4.358511
1305031228.114488 5.555904 6.669480 -4.358511
1305031228.115480 5.555904 6.669480 -4.358511
1305031228.116773 5.555904 6.669480 -4.358511
1305031228.117761 5.555904 6.669480 -4.358511
1305031228.121027 5.555904 6.525793 -4.166928
1305031228.122014 5.555904 6.525793 -4.166928
1305031228.125627 5.555904 6.430001 -4.023241
1305031228.126609 5.555904 6.430001 -4.023241
1305031228.129925 5.472087 6.477897 -3.783762
1305031228.130919 5.472087 6.477897 -3.783762
1305031228.134490 5.651696 6.477897 -3.592179
1305031228.135489 5.651696 6.477897 -3.592179
1305031228.136785 5.651696 6.477897 -3.592179
1305031228.137904 5.651696 6.477897 -3.592179
1305031228.141027 5.651696 6.501845 -3.592179
1305031228.142036 5.651696 6.501845 -3.592179
1305031228.145653 5.472087 6.525793 -3.592179
1305031228.146637 5.472087 6.525793 -3.592179
1305031228.149924 5.472087 6.501845 -3.975345
1305031228.151012 5.472087 6.501845 -3.975345
1305031228.154500 5.555904 6.501845 -4.166928
1305031228.155645 5.555904 6.501845 -4.166928
1305031228.156746 5.555904 6.501845 -4.166928
1305031228.157871 5.555904 6.501845 -4.166928
1305031228.160890 5.448139 6.477897 -4.166928
1305031228.162029 5.448139 6.477897 -4.166928
1305031228.165684 5.472087 6.430001 -4.550094
1305031228.166641 5.472087 6.430001 -4.550094
1305031228.169914 5.376295 6.477897 -4.693781
1305031228.170895 5.376295 6.477897 -4.693781
1305031228.174482 5.376295 6.525793 -4.741677
1305031228.175492 5.376295 6.525793 -4.741677
1305031228.176763 5.376295 6.525793 -4.741677
1305031228.177903 5.376295 6.525793 -4.741677
1305031228.180918 5.280504 6.669480 -4.741677
1305031228.182028 5.280504 6.669480 -4.741677
1305031228.185635 5.088921 6.573688 -4.789573
1305031228.186638 5.088921 6.573688 -4.789573
1305031228.189869 4.885364 6.849089 -4.550094
1305031228.190906 4.885364 6.849089 -4.550094
1305031228.194487 4.993129 6.669480 -4.693781
1305031228.195626 4.993129 6.669480 -4.693781
1305031228.196903 4.993129 6.669480 -4.693781
1305031228.197886 4.993129 6.669480 -4.693781
1305031228.201063 4.885364 6.573688 -4.933260
1305031228.202077 4.885364 6.573688 -4.933260
1305031228.205654 4.717729 6.501845 -4.933260
1305031228.206637 4.717729 6.501845 -4.933260
1305031228.210024 4.657859 6.669480 -4.550094
1305031228.211029 4.657859 6.669480 -4.550094
1305031228.214635 4.693781 6.525793 -4.550094
1305031228.215638 4.693781 6.525793 -4.550094
1305031228.216901 4.693781 6.525793 -4.550094
1305031228.218031 4.693781 6.525793 -4.550094
1305031228.221064 4.741677 6.465923 -4.358511
1305031228.222028 4.741677 6.465923 -4.358511
1305031228.225503 4.789573 6.190523 -4.166928
1305031228.226633 4.789573 6.190523 -4.166928
1305031228.229916 4.789573 6.094731 -4.406407
1305031228.230947 4.789573 6.094731 -4.406407
1305031228.232154 4.789573 6.094731 -4.406407
1305031228.233152 4.789573 6.094731 -4.406407
1305031228.236772 4.657859 5.903148 -4.550094
1305031228.237747 4.657859 5.903148 -4.550094
1305031228.241011 4.693781 5.735513 -4.837468
1305031228.242193 4.693781 5.735513 -4.837468
1305031228.245684 4.693781 5.807357 -4.933260
1305031228.246611 4.693781 5.807357 -4.933260
1305031228.249884 4.681807 5.735513 -5.124843
1305031228.251057 4.681807 5.735513 -5.124843
1305031228.254506 4.681807 5.903148 -4.933260
1305031228.255620 4.681807 5.903148 -4.933260
1305031228.256740 4.681807 5.903148 -4.933260
1305031228.257869 4.681807 5.903148 -4.933260
1305031228.261029 4.514172 6.094731 -5.148791
1305031228.262011 4.514172 6.094731 -5.148791
1305031228.265637 4.358511 6.286314 -5.316426
1305031228.266614 4.358511 6.286314 -5.316426
1305031228.269891 4.322589 6.382106 -5.699591
1305031228.271053 4.322589 6.382106 -5.699591
1305031228.274483 4.322589 6.382106 -5.891174
1305031228.275653 4.322589 6.382106 -5.891174
1305031228.276896 4.322589 6.382106 -5.891174
1305031228.277901 4.322589 6.382106 -5.891174
1305031228.280994 4.119032 6.477897 -6.082757
1305031228.282056 4.119032 6.477897 -6.082757
1305031228.285771 3.843632 6.669480 -5.867226
1305031228.286787 3.843632 6.669480 -5.867226
1305031228.289891 3.747841 6.849089 -6.082757
1305031228.290878 3.747841 6.849089 -6.082757
1305031228.294489 3.544284 6.873037 -6.178549
1305031228.295496 3.544284 6.873037 -6.178549
1305031228.296746 3.544284 6.873037 -6.178549
1305031228.297901 3.544284 6.873037 -6.178549
1305031228.301031 3.352701 7.052646 -5.891174
1305031228.302011 3.352701 7.052646 -5.891174
1305031228.305666 3.352701 7.052646 -5.699591
1305031228.306641 3.352701 7.052646 -5.699591
1305031228.309924 3.508362 7.052646 -5.460113
1305031228.310916 3.508362 7.052646 -5.460113
1305031228.314487 3.544284 7.052646 -5.029051
1305031228.315659 3.544284 7.052646 -5.029051
1305031228.316733 3.544284 7.052646 -5.029051
1305031228.317904 3.544284 7.052646 -5.029051
1305031228.321038 3.544284 7.052646 -4.933260
1305031228.321995 3.544284 7.052646 -4.933260
1305031228.325628 3.544284 6.861063 -4.717729
1305031228.326614 3.544284 6.861063 -4.717729
1305031228.329926 3.544284 6.765271 -4.933260
1305031228.330884 3.544284 6.765271 -4.933260
1305031228.334491 3.592179 6.477897 -5.124843
1305031228.335655 3.592179 6.477897 -5.124843
1305031228.336883 3.592179 6.477897 -5.124843
1305031228.337887 3.592179 6.477897 -5.124843
1305031228.341156 3.592179 5.903148 -5.699591
1305031228.342489 3.592179 5.903148 -5.699591
1305031228.345938 3.544284 5.711565 -5.986966
1305031228.346901 3.544284 5.711565 -5.986966
1305031228.349886 3.544284 5.699591 -6.465923
1305031228.350879 3.544284 5.699591 -6.465923
1305031228.354502 3.544284 5.519982 -6.657506
1305031228.355622 3.544284 5.519982 -6.657506
1305031228.356751 3.544284 5.519982 -6.657506
1305031228.357871 3.544284 5.519982 -6.657506
1305031228.360997 3.544284 5.615774 -7.136463
1305031228.362013 3.544284 5.615774 -7.136463
1305031228.365654 3.173092 5.711565 -7.423838
1305031228.366642 3.173092 5.711565 -7.423838
1305031228.369884 3.161118 5.711565 -7.423838
1305031228.370885 3.161118 5.711565 -7.423838
1305031228.374483 3.077300 5.903148 -7.519629
1305031228.375482 3.077300 5.903148 -7.519629
1305031228.376761 3.077300 5.903148 -7.519629
1305031228.377902 3.077300 5.903148 -7.519629
1305031228.381031 2.789926 6.286314 -7.423838
1305031228.382173 2.789926 6.286314 -7.423838
1305031228.385671 2.586369 6.477897 -7.435812
1305031228.386620 2.586369 6.477897 -7.435812
1305031228.390025 2.442682 6.861063 -7.232255
1305031228.391034 2.442682 6.861063 -7.232255
1305031228.394487 2.310969 7.052646 -7.088568
1305031228.395611 2.310969 7.052646 -7.088568
1305031228.396746 2.310969 7.052646 -7.088568
1305031228.397901 2.310969 7.052646 -7.088568
1305031228.400875 2.215177 7.148437 -7.040672
1305031228.402034 2.215177 7.148437 -7.040672
1305031228.405653 2.107412 7.244229 -6.849089
1305031228.406623 2.107412 7.244229 -6.849089
1305031228.409886 2.011621 7.244229 -7.040672
1305031228.410888 2.011621 7.244229 -7.040672
1305031228.414481 2.011621 7.435812 -6.992776
1305031228.415488 2.011621 7.435812 -6.992776
1305031228.416789 2.011621 7.435812 -6.992776
1305031228.417902 2.011621 7.435812 -6.992776
1305031228.421027 2.011621 7.340020 -6.992776
1305031228.422056 2.011621 7.340020 -6.992776
1305031228.425610 2.011621 7.232255 -7.232255
1305031228.426659 2.011621 7.232255 -7.232255
1305031228.429924 2.011621 6.908959 -7.423838
1305031228.431057 2.011621 6.908959 -7.423838
1305031228.434482 2.107412 6.861063 -7.615421
1305031228.435653 2.107412 6.861063 -7.615421
1305031228.436732 2.107412 6.861063 -7.615421
1305031228.437874 2.107412 6.861063 -7.615421
1305031228.440993 2.011621 6.813167 -7.830951
1305031228.442058 2.011621 6.813167 -7.830951
1305031228.445778 2.011621 6.501845 -7.998586
1305031228.446746 2.011621 6.501845 -7.998586
1305031228.450024 2.011621 6.118679 -8.190169
1305031228.451013 2.011621 6.118679 -8.190169
1305031228.454633 1.927803 6.118679 -8.561361
1305031228.455619 1.927803 6.118679 -8.561361
1305031228.456743 1.927803 6.118679 -8.561361
1305031228.457870 1.927803 6.118679 -8.561361
1305031228.461012 1.724246 6.190523 -8.477544
1305031228.462011 1.724246 6.190523 -8.477544
1305031228.465637 1.640429 6.190523 -8.669126
1305031228.466618 1.640429 6.190523 -8.669126
1305031228.469886 1.592533 6.190523 -8.549387
1305031228.470886 1.592533 6.190523 -8.549387
1305031228.474481 1.448846 6.142627 -8.381752
1305031228.475488 1.448846 6.142627 -8.381752
1305031228.476780 1.448846 6.142627 -8.381752
1305031228.477746 1.448846 6.142627 -8.381752
1305031228.481007 1.448846 6.430001 -7.902795
1305031228.482168 1.448846 6.430001 -7.902795
1305031228.485748 1.341080 6.501845 -7.423838
1305031228.486792 1.341080 6.501845 -7.423838
1305031228.489908 1.257263 6.669480 -7.232255
1305031228.490876 1.257263 6.669480 -7.232255
1305031228.494626 1.293185 6.861063 -7.052646
1305031228.495621 1.293185 6.861063 -7.052646
1305031228.496892 1.293185 6.861063 -7.052646
1305031228.497884 1.293185 6.861063 -7.052646
1305031228.501060 1.233315 7.052646 -6.849089
1305031228.502017 1.233315 7.052646 -6.849089
1305031228.505650 1.257263 6.861063 -6.753297
1305031228.506641 1.257263 6.861063 -6.753297
1305031228.509887 1.053706 6.908959 -7.040672
1305031228.510921 1.053706 6.908959 -7.040672
1305031228.514482 0.910019 6.861063 -7.040672
1305031228.515497 0.910019 6.861063 -7.040672
1305031228.516777 0.910019 6.861063 -7.040672
1305031228.517740 0.910019 6.861063 -7.040672
1305031228.520996 0.862123 6.669480 -7.423838
1305031228.522158 0.862123 6.669480 -7.423838
1305031228.525752 0.862123 6.477897 -7.711212
1305031228.526804 0.862123 6.477897 -7.711212
1305031228.529889 0.778306 6.286314 -7.807003
1305031228.531036 0.778306 6.286314 -7.807003
1305031228.534638 0.862123 6.142627 -7.830951
1305031228.535655 0.862123 6.142627 -7.830951
1305031228.536901 0.862123 6.142627 -7.830951
1305031228.537908 0.862123 6.142627 -7.830951
1305031228.541068 0.957915 6.286314 -7.998586
1305031228.542056 0.957915 6.286314 -7.998586
1305031228.545610 0.957915 6.118679 -8.094378
1305031228.546610 0.957915 6.118679 -8.094378
1305031228.550026 1.053706 6.573688 -7.998586
1305031228.551039 1.053706 6.573688 -7.998586
1305031228.554496 0.526853 6.477897 -8.166221
1305031228.555620 0.526853 6.477897 -8.166221
1305031228.556748 0.526853 6.477897 -8.166221
1305031228.557870 0.526853 6.477897 -8.166221
1305031228.561061 0.778306 5.807357 -7.998586
1305031228.562012 0.778306 5.807357 -7.998586
1305031228.565656 0.886071 5.759461 -8.142274
1305031228.566646 0.886071 5.759461 -8.142274
1305031228.569883 0.778306 5.711565 -7.998586
1305031228.570902 0.778306 5.711565 -7.998586
1305031228.574497 0.778306 5.998940 -7.854899
1305031228.575481 0.778306 5.998940 -7.854899
1305031228.576778 0.778306 5.998940 -7.854899
1305031228.577760 0.778306 5.998940 -7.854899
1305031228.581026 0.502905 6.190523 -7.854899
1305031228.582038 0.502905 6.190523 -7.854899
1305031228.585649 0.478957 6.286314 -8.094378
1305031228.586666 0.478957 6.286314 -8.094378
1305031228.589895 0.395140 6.477897 -7.902795
1305031228.590906 0.395140 6.477897 -7.902795
1305031228.594484 0.443035 6.453949 -7.998586
1305031228.595617 0.443035 6.453949 -7.998586
1305031228.596746 0.443035 6.453949 -7.998586
1305031228.597906 0.443035 6.453949 -7.998586
1305031228.600915 0.191583 6.477897 -7.998586
1305031228.602038 0.191583 6.477897 -7.998586
1305031228.605622 0.287374 6.477897 -8.166221
1305031228.606639 0.287374 6.477897 -8.166221
1305031228.609884 0.119739 6.477897 -8.094378
1305031228.610944 0.119739 6.477897 -8.094378
1305031228.614492 0.083818 6.573688 -8.190169
1305031228.615489 0.083818 6.573688 -8.190169
1305031228.616777 0.083818 6.573688 -8.190169
1305031228.617902 0.083818 6.573688 -8.190169
1305031228.621009 0.011974 6.669480 -8.285961
1305031228.622010 0.011974 6.669480 -8.285961
1305031228.625630 -0.275400 6.573688 -8.166221
1305031228.626621 -0.275400 6.573688 -8.166221
1305031228.629887 -0.287374 6.477897 -8.094378
1305031228.630922 -0.287374 6.477897 -8.094378
1305031228.634484 -0.239479 6.573688 -8.094378
1305031228.635651 -0.239479 6.573688 -8.094378
1305031228.636755 -0.239479 6.573688 -8.094378
1305031228.637902 -0.239479 6.573688 -8.094378
1305031228.641036 -0.275400 6.861063 -7.807003
1305031228.642011 -0.275400 6.861063 -7.807003
1305031228.645647 -0.083818 6.908959 -7.759108
1305031228.646626 -0.083818 6.908959 -7.759108
1305031228.649870 -0.287374 6.861063 -7.423838
1305031228.650873 -0.287374 6.861063 -7.423838
1305031228.654501 -0.263426 6.861063 -7.807003
1305031228.655622 -0.263426 6.861063 -7.807003
1305031228.656746 -0.263426 6.861063 -7.807003
1305031228.657873 -0.263426 6.861063 -7.807003
1305031228.661015 -0.478957 6.525793 -7.854899
1305031228.662013 -0.478957 6.525793 -7.854899
1305031228.665655 -0.658566 6.477897 -7.998586
1305031228.666639 -0.658566 6.477897 -7.998586
1305031228.669887 -0.658566 6.190523 -7.807003
1305031228.670885 -0.658566 6.190523 -7.807003
1305031228.674488 -0.754358 6.094731 -7.471733
1305031228.675483 -0.754358 6.094731 -7.471733
1305031228.676786 -0.754358 6.094731 -7.471733
1305031228.677901 -0.754358 6.094731 -7.471733
1305031228.681028 -0.706462 6.286314 -7.040672
1305031228.682159 -0.706462 6.286314 -7.040672
1305031228.685635 -0.658566 6.118679 -6.849089
1305031228.686631 -0.658566 6.118679 -6.849089
1305031228.689888 -0.658566 6.286314 -6.645532
1305031228.690873 -0.658566 6.286314 -6.645532
1305031228.694623 -0.658566 6.477897 -6.178549
1305031228.695617 -0.658566 6.477897 -6.178549
1305031228.696929 -0.658566 6.477897 -6.178549
1305031228.698038 -0.658566 6.477897 -6.178549
1305031228.701058 -1.029758 6.669480 -5.891174
1305031228.702029 -1.029758 6.669480 -5.891174
1305031228.705653 -1.005810 6.669480 -5.939070
1305031228.706638 -1.005810 6.669480 -5.939070
1305031228.709887 -0.850149 6.477897 -5.939070
1305031228.710924 -0.850149 6.477897 -5.939070
1305031228.714480 -1.245289 6.453949 -5.915122
1305031228.715485 -1.245289 6.453949 -5.915122
1305031228.716760 -1.245289 6.453949 -5.915122
1305031228.717769 -1.245289 6.453949 -5.915122
1305031228.721030 -1.089628 6.382106 -6.274340
1305031228.722013 -1.089628 6.382106 -6.274340
1305031228.725631 -1.341080 6.286314 -6.298288
1305031228.726622 -1.341080 6.286314 -6.298288
1305031228.729892 -1.472794 6.453949 -6.370132
1305031228.730904 -1.472794 6.453949 -6.370132
1305031228.734483 -1.341080 6.477897 -6.465923
1305031228.735484 -1.341080 6.477897 -6.465923
1305031228.736780 -1.341080 6.477897 -6.465923
1305031228.737776 -1.341080 6.477897 -6.465923
1305031228.741013 -1.436872 6.477897 -7.040672
1305031228.742184 -1.436872 6.477897 -7.040672
1305031228.745653 -1.436872 6.453949 -7.064620
1305031228.746642 -1.436872 6.453949 -7.064620
1305031228.749887 -1.616481 6.477897 -7.232255
1305031228.751035 -1.616481 6.477897 -7.232255
1305031228.754493 -1.808064 6.453949 -7.423838
1305031228.755477 -1.808064 6.453949 -7.423838
1305031228.756744 -1.808064 6.453949 -7.423838
1305031228.757870 -1.808064 6.453949 -7.423838
1305031228.761060 -1.616481 6.382106 -7.423838
1305031228.762025 -1.616481 6.382106 -7.423838
1305031228.765651 -1.724246 6.286314 -7.232255
1305031228.766613 -1.724246 6.286314 -7.232255
1305031228.769914 -1.724246 6.382106 -7.232255
1305031228.770904 -1.724246 6.382106 -7.232255
1305031228.774483 -1.616481 6.453949 -7.136463
1305031228.775490 -1.616481 6.453949 -7.136463
1305031228.776776 -1.616481 6.453949 -7.136463
1305031228.777903 -1.616481 6.453949 -7.136463
1305031228.781066 -1.855959 6.453949 -6.849089
1305031228.782012 -1.855959 6.453949 -6.849089
1305031228.785682 -1.808064 6.430001 -6.849089
1305031228.786618 -1.808064 6.430001 -6.849089
1305031228.789883 -1.808064 6.477897 -6.633558
1305031228.790873 -1.808064 6.477897 -6.633558
1305031228.794492 -1.808064 6.286314 -6.657506
1305031228.795481 -1.808064 6.286314 -6.657506
1305031228.796748 -1.808064 6.286314 -6.657506
1305031228.797885 -1.808064 6.286314 -6.657506
1305031228.801020 -2.011621 6.286314 -6.465923
1305031228.802077 -2.011621 6.286314 -6.465923
1305031228.805657 -2.107412 6.094731 -6.657506
1305031228.806621 -2.107412 6.094731 -6.657506
1305031228.809917 -2.203203 6.094731 -6.753297
1305031228.810952 -2.203203 6.094731 -6.753297
1305031228.812405 -2.203203 6.094731 -6.753297
1305031228.813508 -2.203203 6.094731 -6.753297
1305031228.816775 -2.287021 6.142627 -7.040672
1305031228.817901 -2.287021 6.142627 -7.040672
1305031228.821057 -2.490578 6.082757 -7.375942
1305031228.822042 -2.490578 6.082757 -7.375942
1305031228.825627 -2.586369 6.094731 -7.615421
1305031228.826621 -2.586369 6.094731 -7.615421
1305031228.829915 -2.586369 6.106705 -7.519629
1305031228.830920 -2.586369 6.106705 -7.519629
1305031228.834481 -2.873744 6.286314 -7.615421
1305031228.835484 -2.873744 6.286314 -7.615421
1305031228.836759 -2.873744 6.286314 -7.615421
1305031228.837903 -2.873744 6.286314 -7.615421
1305031228.841037 -2.957561 6.477897 -7.807003
1305031228.841997 -2.957561 6.477897 -7.807003
1305031228.845681 -2.969535 6.477897 -7.711212
1305031228.846626 -2.969535 6.477897 -7.711212
1305031228.849905 -3.149144 6.669480 -7.423838
1305031228.851012 -3.149144 6.669480 -7.423838
1305031228.854496 -2.957561 6.861063 -7.519629
1305031228.855499 -2.957561 6.861063 -7.519629
1305031228.856744 -2.957561 6.861063 -7.519629
1305031228.857869 -2.957561 6.861063 -7.519629
1305031228.861068 -3.149144 6.861063 -7.232255
1305031228.862027 -3.149144 6.861063 -7.232255
1305031228.865654 -2.969535 6.861063 -7.040672
1305031228.866613 -2.969535 6.861063 -7.040672
1305031228.869882 -3.149144 6.813167 -6.849089
1305031228.870901 -3.149144 6.813167 -6.849089
1305031228.874502 -3.340727 6.813167 -6.669480
1305031228.875483 -3.340727 6.813167 -6.669480
1305031228.876744 -3.340727 6.813167 -6.669480
1305031228.877761 -3.340727 6.813167 -6.669480
1305031228.881066 -3.149144 6.669480 -6.657506
1305031228.881998 -3.149144 6.669480 -6.657506
1305031228.885681 -3.256909 6.525793 -6.609610
1305031228.886621 -3.256909 6.525793 -6.609610
1305031228.889887 -3.149144 6.477897 -6.274340
1305031228.890875 -3.149144 6.477897 -6.274340
1305031228.894491 -3.256909 6.094731 -6.465923
1305031228.895621 -3.256909 6.094731 -6.465923
1305031228.896902 -3.256909 6.094731 -6.465923
1305031228.897901 -3.256909 6.094731 -6.465923
1305031228.900885 -3.340727 5.998940 -6.657506
1305031228.902062 -3.340727 5.998940 -6.657506
1305031228.905663 -3.436518 5.903148 -6.657506
1305031228.906641 -3.436518 5.903148 -6.657506
1305031228.909910 -3.340727 5.711565 -7.040672
1305031228.910923 -3.340727 5.711565 -7.040672
1305031228.914491 -3.352701 5.711565 -7.064620
1305031228.915486 -3.352701 5.711565 -7.064620
1305031228.916776 -3.352701 5.711565 -7.064620
1305031228.917778 -3.352701 5.711565 -7.064620
1305031228.921026 -3.436518 5.711565 -7.423838
1305031228.922029 -3.436518 5.711565 -7.423838
1305031228.925614 -3.640075 5.711565 -7.088568
1305031228.926621 -3.640075 5.711565 -7.088568
1305031228.929889 -3.723893 5.903148 -7.232255
1305031228.930904 -3.723893 5.903148 -7.232255
1305031228.934483 -3.723893 5.807357 -7.232255
1305031228.935484 -3.723893 5.807357 -7.232255
1305031228.936777 -3.723893 5.807357 -7.232255
1305031228.937735 -3.723893 5.807357 -7.232255
1305031228.941026 -3.723893 5.998940 -7.040672
1305031228.942012 -3.723893 5.998940 -7.040672
1305031228.945681 -3.819684 6.094731 -6.705402
1305031228.946615 -3.819684 6.094731 -6.705402
1305031228.949886 -3.915476 6.094731 -6.465923
1305031228.950884 -3.915476 6.094731 -6.465923
1305031228.954503 -4.071137 6.094731 -6.322236
1305031228.955497 -4.071137 6.094731 -6.322236
1305031228.956745 -4.071137 6.094731 -6.322236
1305031228.957745 -4.071137 6.094731 -6.322236
1305031228.960996 -3.915476 6.286314 -6.226444
1305031228.962010 -3.915476 6.286314 -6.226444
1305031228.965759 -3.819684 6.477897 -5.915122
1305031228.966774 -3.819684 6.477897 -5.915122
1305031228.969916 -4.119032 6.501845 -5.891174
1305031228.970888 -4.119032 6.501845 -5.891174
1305031228.974620 -4.202850 6.765271 -5.531956
1305031228.975664 -4.202850 6.765271 -5.531956
1305031228.976786 -4.202850 6.765271 -5.531956
1305031228.977886 -4.202850 6.765271 -5.531956
1305031228.981044 -4.490224 6.765271 -5.891174
1305031228.982014 -4.490224 6.765271 -5.891174
1305031228.985805 -4.514172 6.765271 -5.555904
1305031228.986777 -4.514172 6.765271 -5.555904
1305031228.989887 -4.538120 6.669480 -5.699591
1305031228.990908 -4.538120 6.669480 -5.699591
1305031228.994488 -4.586016 6.525793 -5.891174
1305031228.995492 -4.586016 6.525793 -5.891174
1305031228.996759 -4.586016 6.525793 -5.891174
1305031228.997873 -4.586016 6.525793 -5.891174
1305031229.001028 -4.681807 6.477897 -5.986966
1305031229.002031 -4.681807 6.477897 -5.986966
1305031229.005654 -4.837468 6.382106 -6.178549
1305031229.006619 -4.837468 6.382106 -6.178549
1305031229.009888 -4.681807 6.286314 -6.274340
1305031229.010887 -4.681807 6.286314 -6.274340
1305031229.014484 -4.681807 6.142627 -6.274340
1305031229.015488 -4.681807 6.142627 -6.274340
1305031229.016809 -4.681807 6.142627 -6.274340
1305031229.017901 -4.681807 6.142627 -6.274340
1305031229.021010 -4.789573 6.094731 -6.370132
1305031229.022037 -4.789573 6.094731 -6.370132
1305031229.025628 -4.873390 6.094731 -6.274340
1305031229.026623 -4.873390 6.094731 -6.274340
1305031229.029918 -4.789573 6.094731 -6.082757
1305031229.030930 -4.789573 6.094731 -6.082757
1305031229.034486 -4.873390 6.142627 -6.082757
1305031229.035480 -4.873390 6.142627 -6.082757
1305031229.036762 -4.873390 6.142627 -6.082757
1305031229.037903 -4.873390 6.142627 -6.082757
1305031229.040886 -4.873390 6.190523 -6.082757
1305031229.042024 -4.873390 6.190523 -6.082757
1305031229.045679 -4.837468 6.286314 -6.082757
1305031229.046619 -4.837468 6.286314 -6.082757
1305031229.049912 -4.837468 6.477897 -5.986966
1305031229.050905 -4.837468 6.477897 -5.986966
1305031229.052450 -4.837468 6.477897 -5.986966
1305031229.053521 -4.837468 6.477897 -5.986966
1305031229.056776 -5.076947 6.477897 -5.986966
1305031229.057910 -5.076947 6.477897 -5.986966
1305031229.060999 -5.268530 6.286314 -5.986966
1305031229.061996 -5.268530 6.286314 -5.986966
1305031229.065658 -5.268530 6.465923 -5.843279
1305031229.066616 -5.268530 6.465923 -5.843279
1305031229.069913 -5.268530 6.382106 -5.699591
1305031229.070914 -5.268530 6.382106 -5.699591
1305031229.074492 -5.268530 6.190523 -5.699591
1305031229.075653 -5.268530 6.190523 -5.699591
1305031229.076686 -5.268530 6.190523 -5.699591
1305031229.077883 -5.268530 6.190523 -5.699591
1305031229.081033 -5.268530 6.286314 -5.316426
1305031229.082199 -5.268530 6.286314 -5.316426
1305031229.085778 -5.172738 6.286314 -5.124843
1305031229.086809 -5.172738 6.286314 -5.124843
1305031229.089926 -5.172738 6.286314 -4.933260
1305031229.090875 -5.172738 6.286314 -4.933260
1305031229.094489 -5.256556 6.286314 -4.741677
1305031229.095497 -5.256556 6.286314 -4.741677
1305031229.096781 -5.256556 6.286314 -4.741677
1305031229.097901 -5.256556 6.286314 -4.741677
1305031229.101022 -5.172738 6.465923 -4.933260
1305031229.102010 -5.172738 6.465923 -4.933260
1305031229.105650 -5.256556 6.477897 -4.741677
1305031229.106637 -5.256556 6.477897 -4.741677
1305031229.109918 -5.448139 6.382106 -4.933260
1305031229.111054 -5.448139 6.382106 -4.933260
1305031229.114634 -5.627748 6.142627 -5.124843
1305031229.115649 -5.627748 6.142627 -5.124843
1305031229.116900 -5.627748 6.142627 -5.124843
1305031229.117903 -5.627748 6.142627 -5.124843
1305031229.120934 -5.651696 6.142627 -5.124843
1305031229.122020 -5.651696 6.142627 -5.124843
1305031229.125627 -5.651696 6.286314 -5.076947
1305031229.126621 -5.651696 6.286314 -5.076947
1305031229.129930 -5.555904 6.286314 -4.741677
1305031229.131045 -5.555904 6.286314 -4.741677
1305031229.134484 -5.603800 6.286314 -4.933260
1305031229.135530 -5.603800 6.286314 -4.933260
1305031229.136758 -5.603800 6.286314 -4.933260
1305031229.137902 -5.603800 6.286314 -4.933260
1305031229.140885 -5.843279 6.453949 -4.933260
1305031229.142009 -5.843279 6.453949 -4.933260
1305031229.145653 -5.986966 6.477897 -4.741677
1305031229.146634 -5.986966 6.477897 -4.741677
1305031229.149886 -5.939070 6.453949 -4.454303
1305031229.150882 -5.939070 6.453949 -4.454303
1305031229.154491 -5.843279 6.430001 -4.550094
1305031229.155506 -5.843279 6.430001 -4.550094
1305031229.156745 -5.843279 6.430001 -4.550094
1305031229.157902 -5.843279 6.430001 -4.550094
1305031229.161002 -5.843279 6.190523 -4.741677
1305031229.161992 -5.843279 6.190523 -4.741677
1305031229.165656 -5.651696 6.190523 -4.693781
1305031229.166644 -5.651696 6.190523 -4.693781
1305031229.169885 -5.843279 6.286314 -4.741677
1305031229.170904 -5.843279 6.286314 -4.741677
1305031229.172441 -5.843279 6.286314 -4.741677
1305031229.173500 -5.843279 6.286314 -4.741677
1305031229.176760 -6.022888 6.094731 -4.741677
1305031229.177772 -6.022888 6.094731 -4.741677
1305031229.180996 -5.986966 6.094731 -5.029051
1305031229.182035 -5.986966 6.094731 -5.029051
1305031229.185654 -6.118679 6.190523 -5.412217
1305031229.186671 -6.118679 6.190523 -5.412217
1305031229.189928 -6.022888 6.046835 -5.519982
1305031229.190871 -6.022888 6.046835 -5.519982
1305031229.194487 -6.034862 6.046835 -5.699591
1305031229.195481 -6.034862 6.046835 -5.699591
1305031229.196779 -6.034862 6.046835 -5.699591
1305031229.197762 -6.034862 6.046835 -5.699591
1305031229.200884 -5.939070 6.046835 -5.795383
1305031229.202010 -5.939070 6.046835 -5.795383
1305031229.205654 -5.939070 6.082757 -5.699591
1305031229.206636 -5.939070 6.082757 -5.699591
1305031229.209923 -6.034862 6.286314 -5.316426
1305031229.210937 -6.034862 6.286314 -5.316426
1305031229.214494 -6.034862 6.286314 -5.148791
1305031229.215491 -6.034862 6.286314 -5.148791
1305031229.216777 -6.034862 6.286314 -5.148791
1305031229.217901 -6.034862 6.286314 -5.148791
1305031229.221021 -6.034862 6.190523 -4.837468
1305031229.222009 -6.034862 6.190523 -4.837468
1305031229.225630 -5.986966 6.286314 -4.789573
1305031229.226608 -5.986966 6.286314 -4.789573
1305031229.229927 -5.843279 6.286314 -4.645885
1305031229.230884 -5.843279 6.286314 -4.645885
1305031229.234493 -5.651696 6.286314 -4.382459
1305031229.235488 -5.651696 6.286314 -4.382459
1305031229.236757 -5.651696 6.286314 -4.382459
1305031229.237884 -5.651696 6.286314 -4.382459
1305031229.240886 -5.651696 6.190523 -4.358511
1305031229.242026 -5.651696 6.190523 -4.358511
1305031229.245650 -5.843279 6.286314 -4.334563
1305031229.246612 -5.843279 6.286314 -4.334563
1305031229.249871 -5.843279 6.106705 -4.645885
1305031229.250867 -5.843279 6.106705 -4.645885
1305031229.254484 -5.986966 6.094731 -4.645885
1305031229.255495 -5.986966 6.094731 -4.645885
1305031229.256773 -5.986966 6.094731 -4.645885
1305031229.257759 -5.986966 6.094731 -4.645885
1305031229.261000 -6.022888 5.903148 -4.741677
1305031229.261993 -6.022888 5.903148 -4.741677
1305031229.265779 -6.022888 6.106705 -4.741677
1305031229.266758 -6.022888 6.106705 -4.741677
1305031229.267756 -6.022888 6.106705 -4.741677
1305031229.271019 -5.687618 6.094731 -5.029051
1305031229.272114 -5.687618 6.094731 -5.029051
1305031229.275612 -5.843279 6.190523 -5.029051
1305031229.276664 -5.843279 6.190523 -5.029051
1305031229.279874 -5.939070 6.094731 -5.029051
1305031229.280885 -5.939070 6.094731 -5.029051
1305031229.284502 -5.939070 6.046835 -5.100895
1305031229.285645 -5.939070 6.046835 -5.100895
1305031229.286642 -5.939070 6.046835 -5.100895
1305031229.289924 -5.939070 5.723539 -5.124843
1305031229.290887 -5.939070 5.723539 -5.124843
1305031229.294483 -5.939070 5.711565 -5.100895
1305031229.295498 -5.939070 5.711565 -5.100895
1305031229.296779 -5.939070 5.711565 -5.100895
1305031229.297937 -5.939070 5.711565 -5.100895
1305031229.300910 -5.627748 5.663670 -4.741677
1305031229.302021 -5.627748 5.663670 -4.741677
1305031229.305636 -5.651696 5.687618 -4.406407
1305031229.306631 -5.651696 5.687618 -4.406407
1305031229.309894 -5.555904 5.711565 -4.358511
1305031229.310886 -5.555904 5.711565 -4.358511
1305031229.314492 -5.352347 5.903148 -4.334563
1305031229.315506 -5.352347 5.903148 -4.334563
1305031229.316748 -5.352347 5.903148 -4.334563
1305031229.317759 -5.352347 5.903148 -4.334563
1305031229.320888 -5.268530 5.998940 -4.454303
1305031229.322010 -5.268530 5.998940 -4.454303
1305031229.325504 -5.172738 6.142627 -4.717729
1305031229.326622 -5.172738 6.142627 -4.717729
1305031229.329927 -5.076947 6.286314 -5.220634
1305031229.330903 -5.076947 6.286314 -5.220634
1305031229.332406 -5.076947 6.286314 -5.220634
1305031229.333515 -5.076947 6.286314 -5.220634
1305031229.336885 -5.555904 6.094731 -5.986966
1305031229.337884 -5.555904 6.094731 -5.986966
1305031229.341010 -5.663670 5.903148 -6.370132
1305031229.342012 -5.663670 5.903148 -6.370132
1305031229.345636 -5.843279 5.903148 -6.370132
1305031229.346621 -5.843279 5.903148 -6.370132
1305031229.349889 -5.986966 5.998940 -6.561715
1305031229.350887 -5.986966 5.998940 -6.561715
1305031229.354493 -6.118679 6.382106 -6.274340
1305031229.355481 -6.118679 6.382106 -6.274340
1305031229.356732 -6.118679 6.382106 -6.274340
1305031229.358061 -6.118679 6.382106 -6.274340
1305031229.361000 -6.070783 6.477897 -6.082757
1305031229.361994 -6.070783 6.477897 -6.082757
1305031229.365760 -6.070783 6.861063 -5.531956
1305031229.366760 -6.070783 6.861063 -5.531956
1305031229.370010 -5.843279 6.908959 -5.029051
1305031229.371011 -5.843279 6.908959 -5.029051
1305031229.374640 -5.651696 7.052646 -4.406407
1305031229.375621 -5.651696 7.052646 -4.406407
1305031229.376884 -5.651696 7.052646 -4.406407
1305031229.378011 -5.651696 7.052646 -4.406407
1305031229.381012 -5.448139 7.148437 -3.987319
1305031229.381998 -5.448139 7.148437 -3.987319
1305031229.385664 -5.555904 7.052646 -4.071137
1305031229.386600 -5.555904 7.052646 -4.071137
1305031229.389917 -5.268530 6.669480 -4.071137
1305031229.390870 -5.268530 6.669480 -4.071137
1305031229.396053 -5.268530 6.501845 -4.645885
1305031229.396836 -5.268530 6.501845 -4.645885
1305031229.397940 -5.268530 6.501845 -4.645885
1305031229.401698 -4.969182 6.094731 -5.316426
1305031229.402680 -4.969182 6.094731 -5.316426
1305031229.406020 -4.969182 5.807357 -5.891174
1305031229.407118 -4.969182 5.807357 -5.891174
1305031229.410746 -5.076947 5.519982 -6.657506
1305031229.411864 -5.076947 5.519982 -6.657506
1305031229.414874 -5.304452 5.615774 -7.040672
1305031229.415850 -5.304452 5.615774 -7.040672
1305031229.419687 -5.448139 5.424191 -7.807003
1305031229.420681 -5.448139 5.424191 -7.807003
1305031229.421862 -5.448139 5.424191 -7.807003
1305031229.422846 -5.448139 5.424191 -7.807003
1305031229.425984 -5.986966 5.328400 -7.902795
1305031229.426972 -5.986966 5.328400 -7.902795
1305031229.430624 -6.034862 5.352347 -7.807003
1305031229.431612 -6.034862 5.352347 -7.807003
1305031229.435012 -6.406053 5.711565 -7.040672
1305031229.435987 -6.406053 5.711565 -7.040672
1305031229.439628 -6.322236 5.903148 -6.274340
1305031229.440739 -6.322236 5.903148 -6.274340
1305031229.441994 -6.322236 5.903148 -6.274340
1305031229.442983 -6.322236 5.903148 -6.274340
1305031229.446900 -6.070783 6.861063 -4.454303
1305031229.447988 -6.070783 6.861063 -4.454303
1305031229.451758 -5.663670 7.244229 -3.592179
1305031229.452758 -5.663670 7.244229 -3.592179
1305031229.456488 -5.448139 7.627394 -2.634265
1305031229.457518 -5.448139 7.627394 -2.634265
1305031229.458489 -5.448139 7.627394 -2.634265
1305031229.462005 -4.921286 7.627394 -2.011621
1305031229.462995 -4.921286 7.627394 -2.011621
1305031229.466623 -4.873390 7.340020 -1.676350
1305031229.467726 -4.873390 7.340020 -1.676350
1305031229.471010 -4.502198 7.052646 -1.772142
1305031229.471981 -4.502198 7.052646 -1.772142
1305031229.475766 -4.406407 6.465923 -2.538474
1305031229.476751 -4.406407 6.465923 -2.538474
1305031229.480025 -4.202850 5.735513 -3.209014
1305031229.480996 -4.202850 5.735513 -3.209014
1305031229.485031 -4.071137 5.232608 -4.166928
1305031229.485995 -4.071137 5.232608 -4.166928
1305031229.489816 -3.819684 4.945234 -5.508009
1305031229.490752 -3.819684 4.945234 -5.508009
1305031229.491996 -3.819684 4.945234 -5.508009
1305031229.492990 -3.819684 4.945234 -5.508009
1305031229.496990 -3.723893 4.562068 -7.711212
1305031229.497974 -3.723893 4.562068 -7.711212
1305031229.501486 -4.310615 4.562068 -9.243875
1305031229.502623 -4.310615 4.562068 -9.243875
1305031229.505809 -4.921286 4.550094 -10.105998
1305031229.506751 -4.921286 4.550094 -10.105998
1305031229.509788 -5.687618 4.466276 -10.584956
1305031229.510877 -5.687618 4.466276 -10.584956
1305031229.511997 -5.687618 4.466276 -10.584956
1305031229.513159 -5.687618 4.466276 -10.584956
1305031229.516650 -6.609610 4.945234 -10.010207
1305031229.517637 -6.609610 4.945234 -10.010207
1305031229.521017 -6.214471 5.711565 -8.669126
1305031229.522155 -6.214471 5.711565 -8.669126
1305031229.526007 -5.651696 6.525793 -6.944880
1305031229.526994 -5.651696 6.525793 -6.944880
1305031229.530914 -4.681807 7.986612 -5.412217
1305031229.531995 -4.681807 7.986612 -5.412217
1305031229.535759 -4.023241 8.776892 -3.975345
1305031229.536744 -4.023241 8.776892 -3.975345
1305031229.540025 -3.723893 9.160058 -3.017431
1305031229.541014 -3.723893 9.160058 -3.017431
1305031229.544662 -3.723893 8.776892 -2.538474
1305031229.545759 -3.723893 8.776892 -2.538474
1305031229.546876 -3.723893 8.776892 -2.538474
1305031229.547990 -3.723893 8.776892 -2.538474
1305031229.551632 -3.819684 7.627394 -2.442682
1305031229.552636 -3.819684 7.627394 -2.442682
1305031229.556013 -3.915476 6.669480 -2.849796
1305031229.556975 -3.915476 6.669480 -2.849796
1305031229.560755 -3.915476 5.711565 -3.256909
1305031229.561869 -3.915476 5.711565 -3.256909
1305031229.565002 -3.640075 4.849442 -3.783762
1305031229.566122 -3.640075 4.849442 -3.783762
1305031229.569959 -3.388623 4.178902 -4.358511
1305031229.570873 -3.388623 4.178902 -4.358511
1305031229.574636 -3.149144 3.891528 -5.124843
1305031229.575820 -3.149144 3.891528 -5.124843
1305031229.576823 -3.149144 3.891528 -5.124843
1305031229.577956 -3.149144 3.891528 -5.124843
1305031229.581572 -2.969535 4.178902 -6.274340
1305031229.582570 -2.969535 4.178902 -6.274340
1305031229.585872 -2.957561 4.514172 -7.232255
1305031229.586878 -2.957561 4.514172 -7.232255
1305031229.590530 -3.149144 4.849442 -7.998586
1305031229.591483 -3.149144 4.849442 -7.998586
1305031229.594750 -3.711919 5.136817 -8.597283
1305031229.595743 -3.711919 5.136817 -8.597283
1305031229.597032 -3.711919 5.136817 -8.597283
1305031229.598115 -3.711919 5.136817 -8.597283
1305031229.601622 -4.202850 5.519982 -8.764918
1305031229.602742 -4.202850 5.519982 -8.764918
1305031229.606784 -4.310615 5.723539 -8.190169
1305031229.609634 -4.454303 6.525793 -7.519629
1305031229.610667 -4.454303 6.525793 -7.519629
1305031229.611876 -4.454303 6.525793 -7.519629
1305031229.612873 -4.454303 6.525793 -7.519629
1305031229.616760 -3.747841 7.435812 -6.274340
1305031229.617885 -3.747841 7.435812 -6.274340
1305031229.621494 -3.304805 7.962665 -5.124843
1305031229.622494 -3.304805 7.962665 -5.124843
1305031229.625877 -2.921639 8.202143 -4.358511
1305031229.626858 -2.921639 8.202143 -4.358511
1305031229.630497 -2.777952 8.010560 -4.023241
1305031229.631480 -2.777952 8.010560 -4.023241
1305031229.634753 -2.598343 7.531603 -4.071137
1305031229.635880 -2.598343 7.531603 -4.071137
1305031229.636993 -2.598343 7.531603 -4.071137
1305031229.638521 -2.598343 7.531603 -4.071137
1305031229.641890 -2.777952 6.477897 -4.741677
1305031229.642878 -2.777952 6.477897 -4.741677
1305031229.646510 -2.777952 5.615774 -5.460113
1305031229.647481 -2.777952 5.615774 -5.460113
1305031229.651051 -2.873744 4.969182 -6.226444
1305031229.651992 -2.873744 4.969182 -6.226444
1305031229.655774 -2.945587 4.657859 -6.849089
1305031229.656815 -2.945587 4.657859 -6.849089
1305031229.659916 -2.957561 4.657859 -7.411864
1305031229.660906 -2.957561 4.657859 -7.411864
1305031229.664489 -2.957561 4.897338 -8.094378
1305031229.665625 -2.957561 4.897338 -8.094378
1305031229.666730 -2.957561 4.897338 -8.094378
1305031229.667857 -2.957561 4.897338 -8.094378
1305031229.670997 -3.053353 5.615774 -8.764918
1305031229.671993 -3.053353 5.615774 -8.764918
1305031229.675637 -3.304805 6.142627 -9.148084
1305031229.676745 -3.304805 6.142627 -9.148084
1305031229.679887 -3.544284 6.669480 -9.243875
1305031229.680869 -3.544284 6.669480 -9.243875
1305031229.684494 -3.544284 6.861063 -9.339667
1305031229.685619 -3.544284 6.861063 -9.339667
1305031229.686951 -3.544284 6.861063 -9.339667
1305031229.687904 -3.544284 6.861063 -9.339667
1305031229.691004 -3.819684 7.244229 -8.944527
1305031229.691993 -3.819684 7.244229 -8.944527
1305031229.695626 -3.723893 7.244229 -8.573335
1305031229.696620 -3.723893 7.244229 -8.573335
1305031229.699872 -3.436518 7.603447 -7.711212
1305031229.700989 -3.436518 7.603447 -7.711212
1305031229.704633 -3.256909 7.627394 -6.753297
1305031229.705725 -3.256909 7.627394 -6.753297
1305031229.706900 -3.256909 7.627394 -6.753297
1305031229.707998 -3.256909 7.627394 -6.753297
1305031229.711504 -2.969535 7.962665 -6.082757
1305031229.714644 -2.957561 7.818977 -5.508009
1305031229.715752 -2.957561 7.818977 -5.508009
1305031229.716882 -2.957561 7.818977 -5.508009
1305031229.717993 -2.957561 7.818977 -5.508009
1305031229.721635 -2.777952 7.292124 -5.412217
1305031229.722619 -2.777952 7.292124 -5.412217
1305031229.726011 -2.586369 6.861063 -5.699591
1305031229.726990 -2.586369 6.861063 -5.699591
1305031229.730664 -2.598343 6.477897 -5.891174
1305031229.731607 -2.598343 6.477897 -5.891174
1305031229.734877 -2.777952 5.903148 -5.986966
1305031229.736001 -2.777952 5.903148 -5.986966
1305031229.739641 -2.670187 5.663670 -6.286314
1305031229.740621 -2.670187 5.663670 -6.286314
1305031229.741876 -2.670187 5.663670 -6.286314
1305031229.742871 -2.670187 5.663670 -6.286314
1305031229.746074 -2.586369 5.424191 -6.849089
1305031229.747021 -2.586369 5.424191 -6.849089
1305031229.750638 -2.538474 5.615774 -7.136463
1305031229.751629 -2.538474 5.615774 -7.136463
1305031229.754887 -2.490578 5.807357 -7.711212
1305031229.755900 -2.490578 5.807357 -7.711212
1305031229.759485 -2.382812 6.070783 -7.759108
1305031229.760480 -2.382812 6.070783 -7.759108
1305031229.761746 -2.382812 6.070783 -7.759108
1305031229.762869 -2.382812 6.070783 -7.759108
1305031229.766012 -2.382812 6.477897 -8.202143
1305031229.766992 -2.382812 6.477897 -8.202143
1305031229.770622 -2.586369 6.813167 -8.477544
1305031229.771621 -2.586369 6.813167 -8.477544
1305031229.774829 -2.586369 6.861063 -8.621231
1305031229.775877 -2.586369 6.861063 -8.621231
1305031229.779494 -2.873744 6.908959 -8.381752
1305031229.780488 -2.873744 6.908959 -8.381752
1305031229.781753 -2.873744 6.908959 -8.381752
1305031229.782736 -2.873744 6.908959 -8.381752
1305031229.786044 -2.586369 7.148437 -8.190169
1305031229.787057 -2.586369 7.148437 -8.190169
1305031229.790632 -2.586369 7.052646 -7.711212
1305031229.791620 -2.586369 7.052646 -7.711212
1305031229.794876 -2.574395 7.148437 -7.232255
1305031229.795995 -2.574395 7.148437 -7.232255
1305031229.799627 -2.179256 7.244229 -7.016724
1305031229.800615 -2.179256 7.244229 -7.016724
1305031229.801866 -2.179256 7.244229 -7.016724
1305031229.802856 -2.179256 7.244229 -7.016724
1305031229.806015 -1.724246 6.873037 -6.657506
1305031229.807003 -1.724246 6.873037 -6.657506
1305031229.810625 -1.724246 6.956854 -6.274340
1305031229.811624 -1.724246 6.956854 -6.274340
1305031229.814881 -1.520689 6.765271 -6.465923
1305031229.816007 -1.520689 6.765271 -6.465923
1305031229.819649 -1.436872 6.477897 -6.849089
1305031229.820651 -1.436872 6.477897 -6.849089
1305031229.821883 -1.436872 6.477897 -6.849089
1305031229.822890 -1.436872 6.477897 -6.849089
1305031229.826026 -1.520689 6.094731 -7.040672
1305031229.827006 -1.520689 6.094731 -7.040672
1305031229.830752 -1.616481 5.903148 -7.232255
1305031229.831741 -1.616481 5.903148 -7.232255
1305031229.834881 -1.520689 5.735513 -7.519629
1305031229.835997 -1.520689 5.735513 -7.519629
1305031229.839509 -1.436872 5.759461 -7.423838
1305031229.840494 -1.436872 5.759461 -7.423838
1305031229.841869 -1.436872 5.759461 -7.423838
1305031229.842869 -1.436872 5.759461 -7.423838
1305031229.845888 -1.436872 5.903148 -7.435812
1305031229.847010 -1.436872 5.903148 -7.435812
1305031229.850651 -1.436872 5.903148 -7.807003
1305031229.851589 -1.436872 5.903148 -7.807003
1305031229.854771 -1.436872 6.094731 -7.818977
1305031229.855737 -1.436872 6.094731 -7.818977
1305031229.856985 -1.436872 6.094731 -7.818977
1305031229.858161 -1.436872 6.094731 -7.818977
1305031229.861754 -1.436872 6.477897 -7.998586
1305031229.862718 -1.436872 6.477897 -7.998586
1305031229.865983 -1.520689 6.477897 -8.094378
1305031229.866987 -1.520689 6.477897 -8.094378
1305031229.870633 -1.436872 6.573688 -8.190169
1305031229.871645 -1.436872 6.573688 -8.190169
1305031229.874857 -1.448846 6.837115 -7.998586
1305031229.875850 -1.448846 6.837115 -7.998586
1305031229.879612 -1.412924 6.861063 -7.807003
1305031229.880581 -1.412924 6.861063 -7.807003
1305031229.881738 -1.412924 6.861063 -7.807003
1305031229.882889 -1.412924 6.861063 -7.807003
1305031229.886029 -1.436872 6.956854 -7.615421
1305031229.887061 -1.436872 6.956854 -7.615421
1305031229.890633 -1.245289 6.885011 -7.375942
1305031229.891618 -1.245289 6.885011 -7.375942
1305031229.894873 -1.053706 6.956854 -7.423838
1305031229.895870 -1.053706 6.956854 -7.423838
1305031229.899494 -1.089628 6.861063 -7.232255
1305031229.900482 -1.089628 6.861063 -7.232255
1305031229.902314 -1.089628 6.861063 -7.232255
1305031229.904885 -1.053706 6.813167 -6.944880
1305031229.905937 -1.053706 6.813167 -6.944880
1305031229.909512 -0.850149 6.669480 -6.681454
1305031229.910491 -0.850149 6.669480 -6.681454
1305031229.911756 -0.850149 6.669480 -6.681454
1305031229.912758 -0.850149 6.669480 -6.681454
1305031229.916032 -0.658566 6.477897 -6.849089
1305031229.917009 -0.658566 6.477897 -6.849089
1305031229.920631 -0.478957 6.465923 -6.657506
1305031229.921646 -0.478957 6.465923 -6.657506
1305031229.924876 -0.478957 6.382106 -6.657506
1305031229.925889 -0.478957 6.382106 -6.657506
1305031229.929493 -0.574749 6.382106 -6.657506
1305031229.930615 -0.574749 6.382106 -6.657506
1305031229.931605 -0.574749 6.382106 -6.657506
1305031229.934900 -0.478957 6.142627 -6.669480
1305031229.935959 -0.478957 6.142627 -6.669480
1305031229.939497 -0.371192 6.046835 -6.657506
1305031229.940484 -0.371192 6.046835 -6.657506
1305031229.941755 -0.371192 6.046835 -6.657506
1305031229.942881 -0.371192 6.046835 -6.657506
1305031229.946031 -0.239479 6.082757 -6.944880
1305031229.947019 -0.239479 6.082757 -6.944880
1305031229.950615 -0.083818 6.094731 -6.849089
1305031229.951631 -0.083818 6.094731 -6.849089
1305031229.954886 -0.275400 6.094731 -6.944880
1305031229.955898 -0.275400 6.094731 -6.944880
1305031229.959518 -0.191583 6.142627 -7.016724
1305031229.960481 -0.191583 6.142627 -7.016724
1305031229.961732 -0.191583 6.142627 -7.016724
1305031229.962733 -0.191583 6.142627 -7.016724
1305031229.965867 -0.083818 6.118679 -6.944880
1305031229.966999 -0.083818 6.118679 -6.944880
1305031229.970487 0.107765 6.094731 -6.944880
1305031229.971489 0.107765 6.094731 -6.944880
1305031229.974877 0.059870 6.286314 -7.040672
1305031229.975862 0.059870 6.286314 -7.040672
1305031229.977118 0.059870 6.286314 -7.040672
1305031229.978717 0.059870 6.286314 -7.040672
1305031229.981761 0.095791 6.286314 -7.232255
1305031229.982845 0.095791 6.286314 -7.232255
1305031229.986018 0.011974 6.430001 -7.040672
1305031229.986998 0.011974 6.430001 -7.040672
1305031229.990643 0.107765 6.382106 -7.232255
1305031229.991610 0.107765 6.382106 -7.232255
1305031229.994866 0.107765 6.465923 -7.423838
1305031229.995856 0.107765 6.465923 -7.423838
1305031229.999501 0.107765 6.669480 -7.423838
1305031230.000484 0.107765 6.669480 -7.423838
1305031230.001733 0.107765 6.669480 -7.423838
1305031230.002733 0.107765 6.669480 -7.423838
1305031230.005998 0.287374 6.765271 -7.615421
1305031230.007010 0.287374 6.765271 -7.615421
1305031230.010625 0.107765 6.861063 -7.447785
1305031230.011648 0.107765 6.861063 -7.447785
1305031230.014886 0.095791 6.669480 -7.423838
1305031230.015874 0.095791 6.669480 -7.423838
1305031230.019514 0.191583 6.477897 -7.615421
1305031230.020487 0.191583 6.477897 -7.615421
1305031230.021762 0.191583 6.477897 -7.615421
1305031230.022873 0.191583 6.477897 -7.615421
1305031230.025985 0.287374 6.477897 -7.615421
1305031230.026985 0.287374 6.477897 -7.615421
1305031230.030622 0.287374 6.477897 -7.423838
1305031230.031607 0.287374 6.477897 -7.423838
1305031230.034873 0.191583 6.286314 -7.615421
1305031230.037012 0.191583 6.286314 -7.615421
1305031230.039516 0.191583 6.286314 -7.411864
1305031230.040633 0.191583 6.286314 -7.411864
1305031230.041889 0.191583 6.286314 -7.411864
1305031230.042890 0.191583 6.286314 -7.411864
1305031230.046015 0.287374 6.477897 -7.040672
1305031230.047006 0.287374 6.477897 -7.040672
1305031230.050619 0.466983 6.453949 -6.944880
1305031230.051634 0.466983 6.453949 -6.944880
1305031230.054888 0.478957 6.286314 -6.753297
1305031230.055902 0.478957 6.286314 -6.753297
1305031230.057519 0.478957 6.286314 -6.753297
1305031230.058496 0.478957 6.286314 -6.753297
1305031230.061745 0.478957 6.453949 -6.753297
1305031230.062858 0.478957 6.453949 -6.753297
1305031230.065981 0.862123 6.382106 -7.040672
1305031230.066976 0.862123 6.382106 -7.040672
1305031230.070761 0.826201 6.142627 -7.232255
1305031230.071743 0.826201 6.142627 -7.232255
1305031230.074906 0.682514 6.094731 -7.088568
1305031230.075862 0.682514 6.094731 -7.088568
1305031230.079504 0.682514 6.094731 -7.232255
1305031230.080483 0.682514 6.094731 -7.232255
1305031230.081746 0.682514 6.094731 -7.232255
1305031230.082751 0.682514 6.094731 -7.232255
1305031230.086019 0.682514 6.082757 -7.423838
1305031230.087044 0.682514 6.082757 -7.423838
1305031230.090671 0.682514 6.430001 -7.328046
1305031230.091649 0.682514 6.430001 -7.328046
1305031230.094855 0.850149 6.477897 -7.447785
1305031230.095857 0.850149 6.477897 -7.447785
1305031230.099483 0.874097 6.669480 -7.447785
1305031230.100471 0.874097 6.669480 -7.447785
1305031230.101725 0.874097 6.669480 -7.447785
1305031230.102854 0.874097 6.669480 -7.447785
1305031230.106001 0.862123 6.861063 -7.232255
1305031230.107016 0.862123 6.861063 -7.232255
1305031230.110631 0.826201 6.765271 -7.136463
1305031230.111619 0.826201 6.765271 -7.136463
1305031230.114886 0.910019 6.813167 -7.423838
1305031230.115861 0.910019 6.813167 -7.423838
1305031230.119476 1.053706 6.477897 -7.615421
1305031230.120487 1.053706 6.477897 -7.615421
1305031230.121763 1.053706 6.477897 -7.615421
1305031230.122863 1.053706 6.477897 -7.615421
1305031230.125977 1.161471 6.286314 -7.519629
1305031230.126985 1.161471 6.286314 -7.519629
1305031230.130614 1.245289 6.094731 -7.447785
1305031230.131610 1.245289 6.094731 -7.447785
1305031230.134741 1.233315 6.094731 -7.423838
1305031230.135861 1.233315 6.094731 -7.423838
1305031230.136985 1.233315 6.094731 -7.423838
1305031230.138482 1.233315 6.094731 -7.423838
1305031230.141613 1.245289 6.094731 -7.423838
1305031230.142617 1.245289 6.094731 -7.423838
1305031230.145881 1.293185 6.070783 -7.435812
1305031230.146875 1.293185 6.070783 -7.435812
1305031230.150508 1.448846 5.903148 -7.423838
1305031230.151652 1.448846 5.903148 -7.423838
1305031230.152643 1.448846 5.903148 -7.423838
1305031230.155902 1.257263 6.094731 -7.423838
1305031230.156885 1.257263 6.094731 -7.423838
1305031230.160489 1.209367 6.286314 -7.375942
1305031230.161478 1.209367 6.286314 -7.375942
1305031230.164733 0.910019 6.573688 -7.232255
1305031230.165850 0.910019 6.573688 -7.232255
1305031230.167471 0.910019 6.573688 -7.232255
1305031230.170612 1.053706 6.669480 -7.328046
1305031230.171653 1.053706 6.669480 -7.328046
1305031230.174890 1.053706 6.861063 -7.423838
1305031230.175879 1.053706 6.861063 -7.423838
1305031230.179509 0.957915 6.861063 -7.423838
1305031230.180523 0.957915 6.861063 -7.423838
1305031230.181764 0.957915 6.861063 -7.423838
1305031230.182746 0.957915 6.861063 -7.423838
1305031230.186030 1.161471 6.765271 -7.423838
1305031230.187011 1.161471 6.765271 -7.423838
1305031230.190621 1.053706 6.669480 -7.411864
1305031230.191610 1.053706 6.669480 -7.411864
1305031230.194863 1.257263 6.573688 -7.615421
1305031230.195853 1.257263 6.573688 -7.615421
1305031230.199480 1.257263 6.501845 -7.615421
1305031230.200473 1.257263 6.501845 -7.615421
1305031230.201725 1.257263 6.501845 -7.615421
1305031230.202849 1.257263 6.501845 -7.615421
1305031230.206019 1.257263 6.382106 -7.615421
1305031230.207177 1.257263 6.382106 -7.615421
1305031230.210646 1.293185 6.286314 -7.471733
1305031230.211630 1.293185 6.286314 -7.471733
1305031230.214886 1.592533 6.286314 -7.423838
1305031230.215869 1.592533 6.286314 -7.423838
1305031230.219497 1.628455 6.286314 -7.232255
1305031230.220488 1.628455 6.286314 -7.232255
1305031230.221764 1.628455 6.286314 -7.232255
1305031230.222746 1.628455 6.286314 -7.232255
1305031230.225988 1.640429 6.430001 -7.136463
1305031230.226986 1.640429 6.430001 -7.136463
1305031230.230629 1.640429 6.477897 -7.088568
1305031230.231609 1.640429 6.477897 -7.088568
1305031230.234881 1.592533 6.477897 -7.040672
1305031230.235853 1.592533 6.477897 -7.040672
1305031230.239521 1.640429 6.525793 -7.040672
1305031230.240493 1.640429 6.525793 -7.040672
1305031230.241778 1.640429 6.525793 -7.040672
1305031230.242754 1.640429 6.525793 -7.040672
1305031230.246006 1.640429 6.765271 -7.232255
1305031230.247029 1.640429 6.765271 -7.232255
1305031230.250617 1.640429 6.813167 -7.052646
1305031230.251642 1.640429 6.813167 -7.052646
1305031230.254903 1.640429 6.813167 -7.232255
1305031230.256025 1.640429 6.813167 -7.232255
1305031230.259487 1.676350 6.669480 -7.471733
1305031230.260607 1.676350 6.669480 -7.471733
1305031230.261859 1.676350 6.669480 -7.471733
1305031230.262858 1.676350 6.669480 -7.471733
1305031230.265978 1.676350 6.501845 -7.519629
1305031230.266977 1.676350 6.501845 -7.519629
1305031230.270650 1.640429 6.477897 -7.423838
1305031230.271647 1.640429 6.477897 -7.423838
1305031230.274886 1.640429 6.190523 -7.423838
1305031230.275912 1.640429 6.190523 -7.423838
1305031230.279485 1.820038 6.094731 -7.615421
1305031230.280637 1.820038 6.094731 -7.615421
1305031230.281904 1.820038 6.094731 -7.615421
1305031230.282887 1.820038 6.094731 -7.615421
1305031230.285987 2.011621 6.094731 -7.471733
1305031230.287014 2.011621 6.094731 -7.471733
1305031230.290653 2.107412 5.903148 -7.232255
1305031230.291606 2.107412 5.903148 -7.232255
1305031230.294858 2.107412 6.070783 -7.328046
1305031230.295856 2.107412 6.070783 -7.328046
1305031230.299493 2.011621 6.286314 -7.040672
1305031230.300617 2.011621 6.286314 -7.040672
1305031230.301871 2.011621 6.286314 -7.040672
1305031230.302850 2.011621 6.286314 -7.040672
1305031230.306009 2.107412 6.190523 -7.136463
1305031230.306981 2.107412 6.190523 -7.136463
1305031230.310636 2.215177 6.477897 -7.040672
1305031230.311623 2.215177 6.477897 -7.040672
1305031230.314883 2.358865 6.465923 -7.040672
1305031230.315872 2.358865 6.465923 -7.040672
1305031230.319520 2.107412 6.477897 -7.136463
1305031230.320510 2.107412 6.477897 -7.136463
1305031230.321761 2.107412 6.477897 -7.136463
1305031230.322740 2.107412 6.477897 -7.136463
1305031230.325987 2.011621 6.669480 -6.849089
1305031230.326988 2.011621 6.669480 -6.849089
1305031230.330620 2.011621 6.813167 -6.992776
1305031230.331724 2.011621 6.813167 -6.992776
1305031230.334888 2.011621 6.669480 -7.232255
1305031230.336010 2.011621 6.669480 -7.232255
1305031230.339497 2.011621 6.849089 -7.232255
1305031230.340621 2.011621 6.849089 -7.232255
1305031230.342034 2.011621 6.849089 -7.232255
1305031230.344907 2.215177 6.669480 -7.088568
1305031230.345855 2.215177 6.669480 -7.088568
1305031230.349509 2.215177 6.669480 -7.399890
1305031230.350492 2.215177 6.669480 -7.399890
1305031230.351758 2.215177 6.669480 -7.399890
1305031230.352777 2.215177 6.669480 -7.399890
1305031230.356025 2.418734 6.573688 -7.088568
1305031230.357013 2.418734 6.573688 -7.088568
1305031230.360616 2.586369 6.477897 -7.232255
1305031230.361606 2.586369 6.477897 -7.232255
1305031230.364859 2.586369 6.477897 -7.232255
1305031230.365873 2.586369 6.477897 -7.232255
1305031230.369495 2.586369 6.453949 -7.328046
1305031230.370488 2.586369 6.453949 -7.328046
1305031230.371748 2.586369 6.453949 -7.328046
1305031230.372777 2.586369 6.453949 -7.328046
1305031230.376122 2.765978 6.094731 -7.232255
1305031230.377498 2.765978 6.094731 -7.232255
1305031230.380653 2.789926 6.118679 -7.423838
1305031230.381644 2.789926 6.118679 -7.423838
1305031230.384885 2.981509 6.382106 -7.232255
1305031230.385884 2.981509 6.382106 -7.232255
1305031230.389474 2.789926 6.573688 -7.423838
1305031230.390479 2.789926 6.573688 -7.423838
1305031230.391752 2.789926 6.573688 -7.423838
1305031230.392745 2.789926 6.573688 -7.423838
1305031230.395874 3.125196 6.477897 -7.447785
1305031230.396994 3.125196 6.477897 -7.447785
1305031230.400623 2.981509 6.465923 -7.783056
1305031230.401615 2.981509 6.465923 -7.783056
1305031230.404891 2.981509 6.286314 -7.807003
1305031230.405896 2.981509 6.286314 -7.807003
1305031230.409498 2.981509 6.286314 -7.854899
1305031230.410623 2.981509 6.286314 -7.854899
1305031230.411752 2.981509 6.286314 -7.854899
1305031230.412875 2.981509 6.286314 -7.854899
1305031230.416036 3.077300 6.046835 -7.807003
1305031230.416984 3.077300 6.046835 -7.807003
1305031230.420503 3.125196 6.094731 -7.807003
1305031230.421654 3.125196 6.094731 -7.807003
1305031230.424777 3.149144 6.094731 -7.711212
1305031230.425748 3.149144 6.094731 -7.711212
1305031230.427007 3.149144 6.094731 -7.711212
1305031230.427991 3.149144 6.094731 -7.711212
1305031230.431626 3.352701 6.118679 -7.471733
1305031230.432618 3.352701 6.118679 -7.471733
1305031230.435997 3.209014 6.382106 -7.052646
1305031230.437005 3.209014 6.382106 -7.052646
1305031230.440639 3.352701 6.430001 -7.232255
1305031230.441745 3.352701 6.430001 -7.232255
1305031230.444887 3.460466 6.430001 -7.232255
1305031230.445868 3.460466 6.430001 -7.232255
1305031230.449499 3.544284 6.477897 -7.232255
1305031230.450500 3.544284 6.477897 -7.232255
1305031230.451743 3.544284 6.477897 -7.232255
1305031230.452729 3.544284 6.477897 -7.232255
1305031230.455872 3.352701 6.465923 -7.136463
1305031230.456991 3.352701 6.465923 -7.136463
1305031230.460489 3.508362 6.477897 -7.040672
1305031230.461655 3.508362 6.477897 -7.040672
1305031230.464747 3.544284 6.477897 -7.088568
1305031230.465855 3.544284 6.477897 -7.088568
1305031230.469485 3.460466 6.477897 -7.232255
1305031230.470486 3.460466 6.477897 -7.232255
1305031230.471735 3.460466 6.477897 -7.232255
1305031230.472762 3.460466 6.477897 -7.232255
1305031230.475897 3.544284 6.430001 -7.040672
1305031230.477018 3.544284 6.430001 -7.040672
1305031230.480506 3.544284 6.382106 -7.064620
1305031230.481604 3.544284 6.382106 -7.064620
1305031230.484753 3.640075 6.286314 -6.992776
1305031230.485742 3.640075 6.286314 -6.992776
1305031230.486989 3.640075 6.286314 -6.992776
1305031230.487984 3.640075 6.286314 -6.992776
1305031230.491628 3.927450 6.106705 -7.040672
1305031230.492619 3.927450 6.106705 -7.040672
1305031230.495913 4.023241 6.094731 -7.040672
1305031230.496871 4.023241 6.094731 -7.040672
1305031230.500506 3.975345 5.903148 -6.609610
1305031230.501604 3.975345 5.903148 -6.609610
1305031230.502604 3.975345 5.903148 -6.609610
1305031230.505881 4.023241 5.735513 -6.465923
1305031230.506863 4.023241 5.735513 -6.465923
1305031230.510513 4.119032 5.711565 -6.370132
1305031230.511486 4.119032 5.711565 -6.370132
1305031230.514747 4.322589 5.711565 -6.465923
1305031230.515739 4.322589 5.711565 -6.465923
1305031230.517010 4.322589 5.711565 -6.465923
1305031230.518156 4.322589 5.711565 -6.465923
1305031230.521638 4.322589 5.711565 -6.274340
1305031230.522624 4.322589 5.711565 -6.274340
1305031230.525881 4.322589 5.807357 -6.274340
1305031230.526857 4.322589 5.807357 -6.274340
1305031230.530500 4.322589 5.759461 -6.178549
1305031230.531689 4.322589 5.759461 -6.178549
1305031230.534763 4.358511 5.711565 -6.250392
1305031230.535783 4.358511 5.711565 -6.250392
1305031230.537017 4.358511 5.711565 -6.250392
1305031230.537984 4.358511 5.711565 -6.250392
1305031230.541645 4.334563 5.711565 -6.082757
1305031230.542650 4.334563 5.711565 -6.082757
1305031230.545886 4.514172 6.070783 -5.915122
1305031230.546888 4.514172 6.070783 -5.915122
1305031230.550582 4.609964 6.094731 -5.939070
1305031230.551540 4.609964 6.094731 -5.939070
1305031230.554740 4.514172 6.142627 -6.082757
1305031230.555759 4.514172 6.142627 -6.082757
1305031230.557385 4.514172 6.142627 -6.082757
1305031230.558363 4.514172 6.142627 -6.082757
1305031230.561644 4.693781 6.046835 -6.082757
1305031230.562733 4.693781 6.046835 -6.082757
1305031230.566002 4.693781 5.903148 -6.082757
1305031230.566996 4.693781 5.903148 -6.082757
1305031230.570498 4.693781 5.903148 -6.082757
1305031230.571619 4.693781 5.903148 -6.082757
1305031230.574894 4.609964 6.046835 -5.903148
1305031230.575866 4.609964 6.046835 -5.903148
1305031230.577115 4.609964 6.046835 -5.903148
1305031230.578872 4.609964 6.046835 -5.903148
1305031230.581767 4.681807 5.903148 -5.843279
1305031230.582734 4.681807 5.903148 -5.843279
1305031230.585993 4.693781 6.046835 -5.603800
1305031230.586989 4.693781 6.046835 -5.603800
1305031230.590622 4.717729 5.903148 -5.412217
1305031230.591619 4.717729 5.903148 -5.412217
1305031230.594871 4.885364 6.094731 -5.508009
1305031230.595864 4.885364 6.094731 -5.508009
1305031230.597521 4.885364 6.094731 -5.508009
1305031230.600631 4.789573 6.094731 -5.316426
1305031230.601620 4.789573 6.094731 -5.316426
1305031230.604874 5.041025 6.094731 -5.076947
1305031230.605876 5.041025 6.094731 -5.076947
1305031230.609528 5.076947 6.142627 -4.933260
1305031230.610491 5.076947 6.142627 -4.933260
1305031230.611764 5.076947 6.142627 -4.933260
1305031230.612756 5.076947 6.142627 -4.933260
1305031230.615908 5.124843 6.070783 -5.029051
1305031230.616887 5.124843 6.070783 -5.029051
1305031230.620507 5.076947 5.903148 -5.124843
1305031230.621639 5.076947 5.903148 -5.124843
1305031230.624762 5.280504 5.903148 -5.124843
1305031230.625927 5.280504 5.903148 -5.124843
1305031230.627119 5.280504 5.903148 -5.124843
1305031230.628119 5.280504 5.903148 -5.124843
1305031230.631793 5.280504 5.711565 -5.316426
1305031230.632749 5.280504 5.711565 -5.316426
1305031230.635889 5.280504 5.687618 -5.316426
1305031230.636890 5.280504 5.687618 -5.316426
1305031230.640549 5.172738 5.711565 -5.508009
1305031230.641621 5.172738 5.711565 -5.508009
1305031230.644770 5.280504 5.807357 -5.496035
1305031230.645764 5.280504 5.807357 -5.496035
1305031230.646991 5.280504 5.807357 -5.496035
1305031230.647993 5.280504 5.807357 -5.496035
1305031230.651636 5.555904 5.903148 -5.795383
1305031230.652610 5.555904 5.903148 -5.795383
1305031230.656011 5.472087 6.094731 -5.879200
1305031230.657027 5.472087 6.094731 -5.879200
1305031230.660490 5.484061 6.046835 -5.843279
1305031230.661608 5.484061 6.046835 -5.843279
1305031230.664738 5.651696 6.094731 -5.891174
1305031230.665751 5.651696 6.094731 -5.891174
1305031230.666978 5.651696 6.094731 -5.891174
1305031230.667969 5.651696 6.094731 -5.891174
1305031230.671633 5.759461 6.094731 -5.843279
1305031230.672802 5.759461 6.094731 -5.843279
1305031230.676025 5.651696 6.094731 -5.555904
1305031230.677031 5.651696 6.094731 -5.555904
1305031230.680660 5.867226 5.998940 -5.891174
1305031230.681778 5.867226 5.998940 -5.891174
1305031230.684748 5.555904 5.998940 -5.903148
1305031230.685869 5.555904 5.998940 -5.903148
1305031230.687514 5.555904 5.998940 -5.903148
1305031230.690620 5.807357 5.998940 -5.891174
1305031230.691608 5.807357 5.998940 -5.891174
1305031230.694862 5.807357 5.903148 -5.699591
1305031230.695857 5.807357 5.903148 -5.699591
1305031230.699490 5.855253 5.807357 -5.867226
1305031230.700479 5.855253 5.807357 -5.867226
1305031230.701745 5.855253 5.807357 -5.867226
1305031230.702871 5.855253 5.807357 -5.867226
1305031230.705884 5.939070 5.711565 -5.795383
1305031230.706973 5.939070 5.711565 -5.795383
1305031230.711410 5.867226 5.807357 -5.555904
1305031230.712321 5.867226 5.807357 -5.555904
1305031230.713446 5.867226 5.807357 -5.555904
1305031230.716802 6.226444 5.711565 -5.699591
1305031230.717738 6.226444 5.711565 -5.699591
1305031230.721025 6.214471 5.903148 -5.699591
1305031230.722014 6.214471 5.903148 -5.699591
1305031230.725622 6.274340 5.998940 -5.891174
1305031230.726635 6.274340 5.998940 -5.891174
1305031230.729864 6.274340 6.094731 -5.508009
1305031230.730847 6.274340 6.094731 -5.508009
1305031230.734490 6.226444 5.903148 -5.603800
1305031230.735477 6.226444 5.903148 -5.603800
1305031230.736768 6.226444 5.903148 -5.603800
1305031230.737869 6.226444 5.903148 -5.603800
1305031230.741016 6.226444 5.807357 -5.939070
1305031230.741995 6.226444 5.807357 -5.939070
1305031230.745635 6.226444 5.711565 -5.986966
1305031230.746614 6.226444 5.711565 -5.986966
1305031230.749886 6.142627 5.903148 -5.891174
1305031230.751028 6.142627 5.903148 -5.891174
1305031230.754542 6.274340 5.903148 -5.891174
1305031230.755513 6.274340 5.903148 -5.891174
1305031230.756514 6.274340 5.903148 -5.891174
1305031230.759897 6.142627 6.118679 -5.699591
1305031230.760856 6.142627 6.118679 -5.699591
1305031230.764483 6.226444 6.286314 -5.508009
1305031230.765610 6.226444 6.286314 -5.508009
1305031230.766745 6.226444 6.286314 -5.508009
1305031230.767855 6.226444 6.286314 -5.508009
1305031230.771000 6.418027 6.286314 -5.316426
1305031230.772164 6.418027 6.286314 -5.316426
1305031230.775620 6.322236 6.286314 -5.124843
1305031230.776626 6.322236 6.286314 -5.124843
1305031230.779875 6.418027 6.094731 -5.124843
1305031230.780865 6.418027 6.094731 -5.124843
1305031230.784000 6.418027 5.998940 -5.100895
1305031230.785104 6.418027 5.998940 -5.100895
1305031230.786613 6.418027 5.998940 -5.100895
1305031230.787743 6.418027 5.998940 -5.100895
1305031230.790997 6.418027 5.711565 -5.100895
1305031230.791981 6.418027 5.711565 -5.100895
1305031230.795607 6.322236 5.711565 -5.220634
1305031230.796590 6.322236 5.711565 -5.220634
1305031230.799869 6.274340 5.615774 -4.933260
1305031230.800854 6.274340 5.615774 -4.933260
1305031230.805400 6.609610 5.519982 -5.029051
1305031230.806497 6.609610 5.519982 -5.029051
1305031230.807503 6.609610 5.519982 -5.029051
1305031230.808542 6.609610 5.519982 -5.029051
1305031230.811861 6.597636 5.711565 -4.753651
1305031230.812840 6.597636 5.711565 -4.753651
1305031230.815876 6.609610 5.735513 -4.741677
1305031230.816848 6.609610 5.735513 -4.741677
1305031230.820475 6.657506 5.807357 -4.741677
1305031230.821489 6.657506 5.807357 -4.741677
1305031230.824737 6.705402 5.711565 -4.741677
1305031230.825755 6.705402 5.711565 -4.741677
1305031230.826990 6.705402 5.711565 -4.741677
1305031230.827976 6.705402 5.711565 -4.741677
1305031230.831620 6.633558 5.711565 -4.645885
1305031230.832619 6.633558 5.711565 -4.645885
1305031230.835915 6.418027 5.699591 -4.358511
1305031230.836891 6.418027 5.699591 -4.358511
1305031230.840502 6.525793 5.699591 -4.550094
1305031230.841503 6.525793 5.699591 -4.550094
1305031230.844768 6.609610 5.615774 -4.406407
1305031230.845741 6.609610 5.615774 -4.406407
1305031230.846993 6.609610 5.615774 -4.406407
1305031230.848131 6.609610 5.615774 -4.406407
1305031230.851632 6.609610 5.711565 -4.071137
1305031230.852733 6.609610 5.711565 -4.071137
1305031230.855885 6.609610 5.723539 -3.879554
1305031230.857008 6.609610 5.723539 -3.879554
1305031230.860658 6.705402 5.807357 -3.616127
1305031230.861604 6.705402 5.807357 -3.616127
1305031230.864850 6.705402 5.807357 -3.687971
1305031230.865867 6.705402 5.807357 -3.687971
1305031230.869511 6.813167 5.903148 -3.304805
1305031230.870615 6.813167 5.903148 -3.304805
1305031230.871902 6.813167 5.903148 -3.304805
1305031230.872870 6.813167 5.903148 -3.304805
1305031230.875887 6.609610 5.903148 -3.209014
1305031230.876878 6.609610 5.903148 -3.209014
1305031230.880511 6.633558 5.903148 -3.209014
1305031230.881555 6.633558 5.903148 -3.209014
1305031230.884769 6.813167 5.711565 -3.209014
1305031230.885744 6.813167 5.711565 -3.209014
1305031230.887010 6.813167 5.711565 -3.209014
1305031230.888024 6.813167 5.711565 -3.209014
1305031230.891678 6.813167 5.615774 -3.197040
1305031230.892615 6.813167 5.615774 -3.197040
1305031230.895856 6.657506 5.711565 -3.113222
1305031230.896850 6.657506 5.711565 -3.113222
1305031230.900497 6.813167 5.711565 -3.161118
1305031230.901606 6.813167 5.711565 -3.161118
1305031230.904746 6.908959 5.711565 -2.730056
1305031230.905860 6.908959 5.711565 -2.730056
1305031230.909496 6.956854 5.711565 -2.825848
1305031230.910500 6.956854 5.711565 -2.825848
1305031230.911750 6.956854 5.711565 -2.825848
