# accelerometer data
# file: 'rgbd_dataset_freiburg1_360.bag'
# timestamp ax ay az
1305031786.852175 0.478957 8.800840 -4.358511
1305031786.853096 0.478957 8.800840 -4.358511
1305031786.856301 0.682514 8.872683 -4.358511
1305031786.857353 0.682514 8.872683 -4.358511
1305031786.860992 0.826201 8.776892 -4.454303
1305031786.861939 0.826201 8.776892 -4.454303
1305031786.863218 0.826201 8.776892 -4.454303
1305031786.864197 0.826201 8.776892 -4.454303
1305031786.867494 0.682514 8.776892 -4.358511
1305031786.868476 0.682514 8.776892 -4.358511
1305031786.872043 0.526853 8.824788 -4.358511
1305031786.873075 0.526853 8.824788 -4.358511
1305031786.876322 0.682514 8.776892 -4.166928
1305031786.877465 0.682514 8.776892 -4.166928
1305031786.880969 0.526853 8.824788 -4.166928
1305031786.881932 0.526853 8.824788 -4.166928
1305031786.883233 0.526853 8.824788 -4.166928
1305031786.884439 0.526853 8.824788 -4.166928
1305031786.887353 0.478957 8.872683 -4.023241
1305031786.888593 0.478957 8.872683 -4.023241
1305031786.892060 0.574749 8.776892 -3.987319
1305031786.893075 0.574749 8.776892 -3.987319
1305031786.896349 0.478957 8.752944 -4.262720
1305031786.897341 0.478957 8.752944 -4.262720
1305031786.898552 0.478957 8.752944 -4.262720
1305031786.899595 0.478957 8.752944 -4.262720
1305031786.903251 0.526853 8.776892 -4.166928
1305031786.904198 0.526853 8.776892 -4.166928
1305031786.907326 0.574749 8.800840 -4.166928
1305031786.908463 0.574749 8.800840 -4.166928
1305031786.912092 0.478957 8.968475 -3.975345
1305031786.913198 0.478957 8.968475 -3.975345
1305031786.916326 0.478957 8.968475 -4.166928
1305031786.917324 0.478957 8.968475 -4.166928
1305031786.920946 0.574749 8.872683 -4.071137
1305031786.922065 0.574749 8.872683 -4.071137
1305031786.923225 0.574749 8.872683 -4.071137
1305031786.924338 0.574749 8.872683 -4.071137
1305031786.927466 0.478957 8.968475 -4.166928
1305031786.928464 0.478957 8.968475 -4.166928
1305031786.932057 0.395140 8.968475 -4.071137
1305031786.933098 0.395140 8.968475 -4.071137
1305031786.936332 0.478957 9.112162 -3.951397
1305031786.937324 0.478957 9.112162 -3.951397
1305031786.940995 0.478957 9.160058 -3.927450
1305031786.941943 0.478957 9.160058 -3.927450
1305031786.943233 0.478957 9.160058 -3.927450
1305031786.944204 0.478957 9.160058 -3.927450
1305031786.947466 0.574749 9.160058 -3.975345
1305031786.948494 0.574749 9.160058 -3.975345
1305031786.952109 0.478957 9.160058 -3.975345
1305031786.953098 0.478957 9.160058 -3.975345
1305031786.956310 0.682514 9.160058 -4.346537
1305031786.957469 0.682514 9.160058 -4.346537
1305031786.960976 0.850149 9.136110 -4.346537
1305031786.961967 0.850149 9.136110 -4.346537
1305031786.963346 0.850149 9.136110 -4.346537
1305031786.964342 0.850149 9.136110 -4.346537
1305031786.967467 0.826201 9.136110 -3.975345
1305031786.968446 0.826201 9.136110 -3.975345
1305031786.972095 0.826201 9.112162 -4.023241
1305031786.973106 0.826201 9.112162 -4.023241
1305031786.976340 0.826201 8.968475 -3.975345
1305031786.977342 0.826201 8.968475 -3.975345
1305031786.978869 0.826201 8.968475 -3.975345
1305031786.982224 0.862123 8.968475 -4.166928
1305031786.983243 0.862123 8.968475 -4.166928
1305031786.986340 0.862123 8.776892 -4.023241
1305031786.987350 0.862123 8.776892 -4.023241
1305031786.991008 0.826201 8.824788 -4.071137
1305031786.991949 0.826201 8.824788 -4.071137
1305031786.993138 0.826201 8.824788 -4.071137
1305031786.996341 0.862123 8.800840 -4.310615
1305031786.997326 0.862123 8.800840 -4.310615
1305031787.000944 0.910019 8.776892 -4.071137
1305031787.002109 0.910019 8.776892 -4.071137
1305031787.003377 0.910019 8.776892 -4.071137
1305031787.004321 0.910019 8.776892 -4.071137
1305031787.007464 0.862123 8.776892 -4.166928
1305031787.008471 0.862123 8.776892 -4.166928
1305031787.012115 0.682514 8.776892 -4.023241
1305031787.013129 0.682514 8.776892 -4.023241
1305031787.016355 0.862123 8.968475 -3.975345
1305031787.017327 0.862123 8.968475 -3.975345
1305031787.021119 0.862123 8.968475 -4.358511
1305031787.022054 0.862123 8.968475 -4.358511
1305031787.023201 0.862123 8.968475 -4.358511
1305031787.024367 0.862123 8.968475 -4.358511
1305031787.027327 0.850149 8.968475 -4.406407
1305031787.028475 0.850149 8.968475 -4.406407
1305031787.031916 0.862123 8.968475 -4.550094
1305031787.033134 0.862123 8.968475 -4.550094
1305031787.036364 0.862123 9.148084 -4.550094
1305031787.037325 0.862123 9.148084 -4.550094
1305031787.038592 0.862123 9.148084 -4.550094
1305031787.039590 0.862123 9.148084 -4.550094
1305031787.043221 1.053706 8.968475 -4.789573
1305031787.044197 1.053706 8.968475 -4.789573
1305031787.047320 1.053706 8.872683 -4.741677
1305031787.048464 1.053706 8.872683 -4.741677
1305031787.052084 1.053706 9.064266 -4.693781
1305031787.053101 1.053706 9.064266 -4.693781
1305031787.056480 0.862123 9.064266 -4.550094
1305031787.057495 0.862123 9.064266 -4.550094
1305031787.058450 0.862123 9.064266 -4.550094
1305031787.062097 0.826201 8.968475 -4.741677
1305031787.063084 0.826201 8.968475 -4.741677
1305031787.066297 0.778306 8.968475 -4.358511
1305031787.067309 0.778306 8.968475 -4.358511
1305031787.071014 0.862123 8.968475 -4.358511
1305031787.071963 0.862123 8.968475 -4.358511
1305031787.073137 0.862123 8.968475 -4.358511
1305031787.076322 0.682514 9.112162 -4.071137
1305031787.077485 0.682514 9.112162 -4.071137
1305031787.080992 0.682514 9.160058 -3.783762
1305031787.082083 0.682514 9.160058 -3.783762
1305031787.083228 0.682514 9.160058 -3.783762
1305031787.084321 0.682514 9.160058 -3.783762
1305031787.087326 0.682514 8.968475 -3.687971
1305031787.088467 0.682514 8.968475 -3.687971
1305031787.091930 0.862123 8.776892 -3.592179
1305031787.093139 0.862123 8.776892 -3.592179
1305031787.096185 0.886071 8.800840 -3.592179
1305031787.097200 0.886071 8.800840 -3.592179
1305031787.098443 0.886071 8.800840 -3.592179
1305031787.099422 0.886071 8.800840 -3.592179
1305031787.103062 0.862123 8.776892 -3.783762
1305031787.104217 0.862123 8.776892 -3.783762
1305031787.107468 0.957915 8.681100 -3.783762
1305031787.108464 0.957915 8.681100 -3.783762
1305031787.112093 0.886071 8.585309 -3.927450
1305031787.113084 0.886071 8.585309 -3.927450
1305031787.116329 0.862123 8.776892 -3.783762
1305031787.117494 0.862123 8.776892 -3.783762
1305031787.121125 0.886071 8.764918 -3.975345
1305031787.122049 0.886071 8.764918 -3.975345
1305031787.123202 0.886071 8.764918 -3.975345
1305031787.124344 0.886071 8.764918 -3.975345
1305031787.127468 0.957915 8.776892 -3.783762
1305031787.128461 0.957915 8.776892 -3.783762
1305031787.132051 0.862123 8.776892 -3.640075
1305031787.133074 0.862123 8.776892 -3.640075
1305031787.136369 0.862123 8.776892 -3.592179
1305031787.137347 0.862123 8.776892 -3.592179
1305031787.140949 0.862123 8.968475 -3.592179
1305031787.141942 0.862123 8.968475 -3.592179
1305031787.143200 0.862123 8.968475 -3.592179
1305031787.144330 0.862123 8.968475 -3.592179
1305031787.147332 0.862123 8.824788 -3.400597
1305031787.148463 0.862123 8.824788 -3.400597
1305031787.151925 0.862123 9.064266 -3.400597
1305031787.153128 0.862123 9.064266 -3.400597
1305031787.156200 0.826201 9.160058 -3.400597
1305031787.157311 0.826201 9.160058 -3.400597
1305031787.158444 0.826201 9.160058 -3.400597
1305031787.159601 0.826201 9.160058 -3.400597
1305031787.163087 0.826201 9.255849 -3.304805
1305031787.164175 0.826201 9.255849 -3.304805
1305031787.167300 0.862123 9.207953 -3.232962
1305031787.168471 0.862123 9.207953 -3.232962
1305031787.171936 0.826201 9.351641 -3.209014
1305031787.173128 0.826201 9.351641 -3.209014
1305031787.176247 0.862123 9.351641 -3.209014
1305031787.177200 0.862123 9.351641 -3.209014
1305031787.178473 0.862123 9.351641 -3.209014
1305031787.179447 0.862123 9.351641 -3.209014
1305031787.183077 0.850149 9.351641 -3.017431
1305031787.184215 0.850149 9.351641 -3.017431
1305031787.187494 0.862123 9.255849 -3.209014
1305031787.188468 0.862123 9.255849 -3.209014
1305031787.192114 0.910019 9.184006 -3.017431
1305031787.193098 0.910019 9.184006 -3.017431
1305031787.196335 0.778306 9.351641 -2.801900
1305031787.197478 0.778306 9.351641 -2.801900
1305031787.200926 0.682514 9.351641 -2.634265
1305031787.202033 0.682514 9.351641 -2.634265
1305031787.203214 0.682514 9.351641 -2.634265
1305031787.204374 0.682514 9.351641 -2.634265
1305031787.207475 0.826201 9.160058 -2.837822
1305031787.208449 0.826201 9.160058 -2.837822
1305031787.212093 0.574749 9.160058 -2.538474
1305031787.213074 0.574749 9.160058 -2.538474
1305031787.216371 0.682514 9.160058 -2.634265
1305031787.217353 0.682514 9.160058 -2.634265
1305031787.220962 0.826201 9.160058 -2.634265
1305031787.221915 0.826201 9.160058 -2.634265
1305031787.223217 0.826201 9.160058 -2.634265
1305031787.224198 0.826201 9.160058 -2.634265
1305031787.227364 0.574749 9.160058 -2.634265
1305031787.228447 0.574749 9.160058 -2.634265
1305031787.232048 0.682514 9.160058 -2.730056
1305031787.233078 0.682514 9.160058 -2.730056
1305031787.236327 0.478957 9.160058 -2.634265
1305031787.237464 0.478957 9.160058 -2.634265
1305031787.240956 0.574749 9.160058 -2.634265
1305031787.241926 0.574749 9.160058 -2.634265
1305031787.243217 0.574749 9.160058 -2.634265
1305031787.244379 0.574749 9.160058 -2.634265
1305031787.247482 0.466983 9.351641 -2.634265
1305031787.248455 0.466983 9.351641 -2.634265
1305031787.252150 0.478957 9.495328 -2.538474
1305031787.253075 0.478957 9.495328 -2.538474
1305031787.256383 0.574749 9.519276 -2.825848
1305031787.257325 0.574749 9.519276 -2.825848
1305031787.261018 0.526853 9.543224 -2.921639
1305031787.261995 0.526853 9.543224 -2.921639
1305031787.263180 0.526853 9.543224 -2.921639
1305031787.264183 0.526853 9.543224 -2.921639
1305031787.267321 0.574749 9.543224 -2.921639
1305031787.268472 0.574749 9.543224 -2.921639
1305031787.272085 0.574749 9.878494 -2.825848
1305031787.273121 0.574749 9.878494 -2.825848
1305031787.276364 0.574749 9.914415 -2.825848
1305031787.277335 0.574749 9.914415 -2.825848
1305031787.280993 0.478957 9.734806 -2.825848
1305031787.281923 0.478957 9.734806 -2.825848
1305031787.283216 0.478957 9.734806 -2.825848
1305031787.284197 0.478957 9.734806 -2.825848
1305031787.287329 0.287374 9.734806 -2.825848
1305031787.288459 0.287374 9.734806 -2.825848
1305031787.291919 0.478957 9.639015 -2.538474
1305031787.292989 0.478957 9.639015 -2.538474
1305031787.296342 0.478957 9.639015 -2.394786
1305031787.297328 0.478957 9.639015 -2.394786
1305031787.298429 0.478957 9.639015 -2.394786
1305031787.299551 0.478957 9.639015 -2.394786
1305031787.303056 0.478957 9.639015 -2.083464
1305031787.304217 0.478957 9.639015 -2.083464
1305031787.307358 0.478957 9.734806 -2.251099
1305031787.308462 0.478957 9.734806 -2.251099
1305031787.312059 0.466983 9.639015 -2.251099
1305031787.313200 0.466983 9.639015 -2.251099
1305031787.316345 0.395140 9.567171 -2.251099
1305031787.317348 0.395140 9.567171 -2.251099
1305031787.320978 0.287374 9.543224 -2.011621
1305031787.321937 0.287374 9.543224 -2.011621
1305031787.323202 0.287374 9.543224 -2.011621
1305031787.324316 0.287374 9.543224 -2.011621
1305031787.327345 0.287374 9.543224 -2.059516
1305031787.328477 0.287374 9.543224 -2.059516
1305031787.332089 0.191583 9.543224 -1.867933
1305031787.333072 0.191583 9.543224 -1.867933
1305031787.336384 0.191583 9.591119 -1.676350
1305031787.337296 0.191583 9.591119 -1.676350
1305031787.338804 0.191583 9.591119 -1.676350
1305031787.339923 0.191583 9.591119 -1.676350
1305031787.343181 0.478957 9.543224 -1.676350
1305031787.344172 0.478957 9.543224 -1.676350
1305031787.347298 0.478957 9.519276 -1.580559
1305031787.348427 0.478957 9.519276 -1.580559
1305031787.352055 0.443035 9.351641 -1.388976
1305031787.353099 0.443035 9.351641 -1.388976
1305031787.356343 0.478957 9.447432 -1.484768
1305031787.357328 0.478957 9.447432 -1.484768
1305031787.358601 0.478957 9.447432 -1.484768
1305031787.359929 0.478957 9.447432 -1.484768
1305031787.363189 0.478957 9.184006 -1.580559
1305031787.364203 0.478957 9.184006 -1.580559
1305031787.367316 0.478957 9.172032 -1.676350
1305031787.368469 0.478957 9.172032 -1.676350
1305031787.371922 0.778306 9.160058 -1.724246
1305031787.373120 0.778306 9.160058 -1.724246
1305031787.376372 0.526853 9.160058 -1.963725
1305031787.377347 0.526853 9.160058 -1.963725
1305031787.378594 0.526853 9.160058 -1.963725
1305031787.379576 0.526853 9.160058 -1.963725
1305031787.383072 0.478957 8.968475 -1.867933
1305031787.384213 0.478957 8.968475 -1.867933
1305031787.387475 0.574749 8.776892 -2.059516
1305031787.388474 0.574749 8.776892 -2.059516
1305031787.392079 0.574749 8.752944 -2.155308
1305031787.393093 0.574749 8.752944 -2.155308
1305031787.396341 0.502905 8.776892 -2.059516
1305031787.397349 0.502905 8.776892 -2.059516
1305031787.400931 0.526853 8.752944 -2.059516
1305031787.402014 0.526853 8.752944 -2.059516
1305031787.403143 0.526853 8.752944 -2.059516
1305031787.404199 0.526853 8.752944 -2.059516
1305031787.407341 0.526853 8.776892 -2.059516
1305031787.408464 0.526853 8.776892 -2.059516
1305031787.411938 0.682514 8.681100 -2.155308
1305031787.413130 0.682514 8.681100 -2.155308
1305031787.416377 0.478957 8.585309 -2.059516
1305031787.417344 0.478957 8.585309 -2.059516
1305031787.418804 0.478957 8.585309 -2.059516
1305031787.419933 0.478957 8.585309 -2.059516
1305031787.423225 0.478957 8.441622 -1.963725
1305031787.424306 0.478957 8.441622 -1.963725
1305031787.427458 0.682514 8.393726 -2.107412
1305031787.428463 0.682514 8.393726 -2.107412
1305031787.432059 0.478957 8.369778 -2.011621
1305031787.433064 0.478957 8.369778 -2.011621
1305031787.436353 0.526853 8.393726 -2.059516
1305031787.437348 0.526853 8.393726 -2.059516
1305031787.440990 0.682514 8.297935 -2.251099
1305031787.441918 0.682514 8.297935 -2.251099
1305031787.443200 0.682514 8.297935 -2.251099
1305031787.444344 0.682514 8.297935 -2.251099
1305031787.447325 0.682514 8.202143 -2.251099
1305031787.448469 0.682514 8.202143 -2.251099
1305031787.452075 0.778306 8.010560 -2.394786
1305031787.453094 0.778306 8.010560 -2.394786
1305031787.456374 0.778306 8.010560 -2.394786
1305031787.457348 0.778306 8.010560 -2.394786
1305031787.458870 0.778306 8.010560 -2.394786
1305031787.459935 0.778306 8.010560 -2.394786
1305031787.463187 0.682514 7.962665 -2.251099
1305031787.464184 0.682514 7.962665 -2.251099
1305031787.467334 0.862123 7.914769 -2.155308
1305031787.468436 0.862123 7.914769 -2.155308
1305031787.472093 0.862123 7.818977 -2.251099
1305031787.473073 0.862123 7.818977 -2.251099
1305031787.476307 0.862123 8.010560 -2.346891
1305031787.477378 0.862123 8.010560 -2.346891
1305031787.478603 0.862123 8.010560 -2.346891
1305031787.479635 0.862123 8.010560 -2.346891
1305031787.483223 0.874097 7.914769 -2.155308
1305031787.484216 0.874097 7.914769 -2.155308
1305031787.487500 0.850149 7.818977 -2.047542
1305031787.488463 0.850149 7.818977 -2.047542
1305031787.492070 0.862123 7.962665 -2.251099
1305031787.493089 0.862123 7.962665 -2.251099
1305031787.496339 0.862123 7.914769 -2.251099
1305031787.497353 0.862123 7.914769 -2.251099
1305031787.500932 0.682514 7.914769 -1.867933
1305031787.502054 0.682514 7.914769 -1.867933
1305031787.503176 0.682514 7.914769 -1.867933
1305031787.504345 0.682514 7.914769 -1.867933
1305031787.507353 0.862123 7.818977 -2.011621
1305031787.508444 0.862123 7.818977 -2.011621
1305031787.512093 0.862123 8.010560 -1.867933
1305031787.513087 0.862123 8.010560 -1.867933
1305031787.516337 0.862123 8.010560 -1.772142
1305031787.517338 0.862123 8.010560 -1.772142
1305031787.518868 0.862123 8.010560 -1.772142
1305031787.519934 0.862123 8.010560 -1.772142
1305031787.523186 0.778306 8.010560 -1.772142
1305031787.524174 0.778306 8.010560 -1.772142
1305031787.527356 0.778306 7.962665 -1.772142
1305031787.528421 0.778306 7.962665 -1.772142
1305031787.531916 0.682514 7.998586 -1.772142
1305031787.532922 0.682514 7.998586 -1.772142
1305031787.536328 0.862123 7.986612 -1.867933
1305031787.537337 0.862123 7.986612 -1.867933
1305031787.538603 0.862123 7.986612 -1.867933
1305031787.539596 0.862123 7.986612 -1.867933
1305031787.543075 0.778306 7.914769 -1.676350
1305031787.544211 0.778306 7.914769 -1.676350
1305031787.547324 0.574749 7.962665 -1.628455
1305031787.548467 0.574749 7.962665 -1.628455
1305031787.552071 0.682514 7.914769 -1.676350
1305031787.553060 0.682514 7.914769 -1.676350
1305031787.556383 0.682514 7.962665 -1.484768
1305031787.557382 0.682514 7.962665 -1.484768
1305031787.558594 0.682514 7.962665 -1.484768
1305031787.559578 0.682514 7.962665 -1.484768
1305031787.563049 0.478957 7.962665 -1.580559
1305031787.564173 0.478957 7.962665 -1.580559
1305031787.567305 0.478957 7.986612 -1.772142
1305031787.568462 0.478957 7.986612 -1.772142
1305031787.572061 0.574749 8.010560 -2.071490
1305031787.573077 0.574749 8.010560 -2.071490
1305031787.576356 0.395140 8.010560 -2.059516
1305031787.577381 0.395140 8.010560 -2.059516
1305031787.580930 0.287374 8.010560 -2.059516
1305031787.581923 0.287374 8.010560 -2.059516
1305031787.582934 0.287374 8.010560 -2.059516
1305031787.586332 0.191583 8.202143 -1.724246
1305031787.587328 0.191583 8.202143 -1.724246
1305031787.590932 0.287374 8.106352 -2.059516
1305031787.592075 0.287374 8.106352 -2.059516
1305031787.593345 0.287374 8.106352 -2.059516
1305031787.594346 0.287374 8.106352 -2.059516
1305031787.597496 0.287374 8.202143 -2.059516
1305031787.598437 0.287374 8.202143 -2.059516
1305031787.602044 0.287374 8.393726 -2.394786
1305031787.603051 0.287374 8.393726 -2.394786
1305031787.606186 0.478957 8.393726 -2.442682
1305031787.607349 0.478957 8.393726 -2.442682
1305031787.610937 0.478957 8.297935 -2.634265
1305031787.611939 0.478957 8.297935 -2.634265
1305031787.613230 0.478957 8.297935 -2.634265
1305031787.614203 0.478957 8.297935 -2.634265
1305031787.617478 0.478957 8.393726 -3.017431
1305031787.618594 0.478957 8.393726 -3.017431
1305031787.622067 0.682514 8.393726 -3.113222
1305031787.623074 0.682514 8.393726 -3.113222
1305031787.626372 0.526853 8.441622 -3.209014
1305031787.627341 0.526853 8.441622 -3.209014
1305031787.630912 0.778306 8.202143 -3.400597
1305031787.632035 0.778306 8.202143 -3.400597
1305031787.633210 0.778306 8.202143 -3.400597
1305031787.634297 0.778306 8.202143 -3.400597
1305031787.637453 0.574749 8.202143 -3.304805
1305031787.638468 0.574749 8.202143 -3.304805
1305031787.642088 0.526853 8.345830 -3.400597
1305031787.643106 0.526853 8.345830 -3.400597
1305031787.646352 0.490931 8.202143 -3.304805
1305031787.647306 0.490931 8.202143 -3.304805
1305031787.650922 0.526853 8.010560 -3.544284
1305031787.651920 0.526853 8.010560 -3.544284
1305031787.653186 0.526853 8.010560 -3.544284
1305031787.654185 0.526853 8.010560 -3.544284
1305031787.657436 0.478957 8.010560 -3.209014
1305031787.658432 0.478957 8.010560 -3.209014
1305031787.662051 0.395140 8.010560 -3.209014
1305031787.663040 0.395140 8.010560 -3.209014
1305031787.666168 0.287374 7.818977 -3.209014
1305031787.667302 0.287374 7.818977 -3.209014
1305031787.670568 0.395140 7.627394 -3.209014
1305031787.671917 0.395140 7.627394 -3.209014
1305031787.673184 0.395140 7.627394 -3.209014
1305031787.674169 0.395140 7.627394 -3.209014
1305031787.677417 0.478957 7.531603 -3.209014
1305031787.678424 0.478957 7.531603 -3.209014
1305031787.682080 0.682514 7.435812 -3.209014
1305031787.683093 0.682514 7.435812 -3.209014
1305031787.686353 0.478957 7.531603 -3.209014
1305031787.687328 0.478957 7.531603 -3.209014
1305031787.690851 0.526853 7.340020 -3.232962
1305031787.691917 0.526853 7.340020 -3.232962
1305031787.693230 0.526853 7.340020 -3.232962
1305031787.694201 0.526853 7.340020 -3.232962
1305031787.697500 0.526853 7.435812 -3.209014
1305031787.698428 0.526853 7.435812 -3.209014
1305031787.702099 0.490931 7.435812 -3.209014
1305031787.703047 0.490931 7.435812 -3.209014
1305031787.706310 0.502905 7.627394 -3.304805
1305031787.707295 0.502905 7.627394 -3.304805
1305031787.711001 0.478957 7.627394 -3.640075
1305031787.712092 0.478957 7.627394 -3.640075
1305031787.713201 0.478957 7.627394 -3.640075
1305031787.714343 0.478957 7.627394 -3.640075
1305031787.717449 0.502905 7.651342 -4.166928
1305031787.718594 0.502905 7.651342 -4.166928
1305031787.722202 0.526853 7.723186 -4.550094
1305031787.723217 0.526853 7.723186 -4.550094
1305031787.726197 0.478957 8.010560 -4.741677
1305031787.727342 0.478957 8.010560 -4.741677
1305031787.730555 0.478957 8.202143 -4.741677
1305031787.731584 0.478957 8.202143 -4.741677
1305031787.733177 0.478957 8.202143 -4.741677
1305031787.734177 0.478957 8.202143 -4.741677
1305031787.737480 0.574749 8.202143 -5.124843
1305031787.738470 0.574749 8.202143 -5.124843
1305031787.742067 0.478957 8.202143 -5.124843
1305031787.743098 0.478957 8.202143 -5.124843
1305031787.746344 0.478957 8.106352 -5.484061
1305031787.747340 0.478957 8.106352 -5.484061
1305031787.750938 0.574749 7.986612 -5.412217
1305031787.751919 0.574749 7.986612 -5.412217
1305031787.753220 0.574749 7.986612 -5.412217
1305031787.754211 0.574749 7.986612 -5.412217
1305031787.757467 0.682514 7.818977 -5.460113
1305031787.758452 0.682514 7.818977 -5.460113
1305031787.762050 0.682514 7.818977 -5.508009
1305031787.763047 0.682514 7.818977 -5.508009
1305031787.766299 0.574749 7.818977 -5.316426
1305031787.767300 0.574749 7.818977 -5.316426
1305031787.770929 0.778306 7.627394 -5.316426
1305031787.771916 0.778306 7.627394 -5.316426
1305031787.773199 0.778306 7.627394 -5.316426
1305031787.774351 0.778306 7.627394 -5.316426
1305031787.777424 0.778306 7.627394 -5.508009
1305031787.778440 0.778306 7.627394 -5.508009
1305031787.782058 0.862123 7.627394 -5.316426
1305031787.783062 0.862123 7.627394 -5.316426
1305031787.786318 0.862123 7.651342 -5.508009
1305031787.787289 0.862123 7.651342 -5.508009
1305031787.790945 1.053706 7.627394 -5.412217
1305031787.791922 1.053706 7.627394 -5.412217
1305031787.793204 1.053706 7.627394 -5.412217
1305031787.794351 1.053706 7.627394 -5.412217
1305031787.797465 1.053706 7.435812 -5.316426
1305031787.798426 1.053706 7.435812 -5.316426
1305031787.802049 1.053706 7.268176 -5.316426
1305031787.803048 1.053706 7.268176 -5.316426
1305031787.806349 1.053706 7.435812 -5.316426
1305031787.807332 1.053706 7.435812 -5.316426
1305031787.810929 1.161471 7.531603 -5.316426
1305031787.812060 1.161471 7.531603 -5.316426
1305031787.813090 1.161471 7.531603 -5.316426
1305031787.816322 1.209367 7.435812 -5.555904
1305031787.817468 1.209367 7.435812 -5.555904
1305031787.820954 1.257263 7.531603 -5.795383
1305031787.821930 1.257263 7.531603 -5.795383
1305031787.823178 1.257263 7.531603 -5.795383
1305031787.824341 1.257263 7.531603 -5.795383
1305031787.827353 1.257263 7.651342 -5.891174
1305031787.828463 1.257263 7.651342 -5.891174
1305031787.832047 0.957915 7.723186 -5.867226
1305031787.833082 0.957915 7.723186 -5.867226
1305031787.836339 0.957915 7.818977 -5.986966
1305031787.837348 0.957915 7.818977 -5.986966
1305031787.840961 1.053706 8.010560 -6.274340
1305031787.841923 1.053706 8.010560 -6.274340
1305031787.843200 1.053706 8.010560 -6.274340
1305031787.844339 1.053706 8.010560 -6.274340
1305031787.847343 1.053706 8.106352 -6.465923
1305031787.848470 1.053706 8.106352 -6.465923
1305031787.852062 1.053706 8.058456 -6.561715
1305031787.853091 1.053706 8.058456 -6.561715
1305031787.856370 1.053706 8.202143 -6.322236
1305031787.857341 1.053706 8.202143 -6.322236
1305031787.858578 1.053706 8.202143 -6.322236
1305031787.859595 1.053706 8.202143 -6.322236
1305031787.863222 1.053706 8.202143 -6.370132
1305031787.864201 1.053706 8.202143 -6.370132
1305031787.867437 1.053706 8.010560 -6.370132
1305031787.868434 1.053706 8.010560 -6.370132
1305031787.872060 0.910019 7.962665 -6.082757
1305031787.873109 0.910019 7.962665 -6.082757
1305031787.876355 1.053706 7.818977 -6.082757
1305031787.877470 1.053706 7.818977 -6.082757
1305031787.881078 0.910019 7.998586 -5.699591
1305031787.882082 0.910019 7.998586 -5.699591
1305031787.883341 0.910019 7.998586 -5.699591
1305031787.884325 0.910019 7.998586 -5.699591
1305031787.887478 1.053706 7.914769 -5.891174
1305031787.888451 1.053706 7.914769 -5.891174
1305031787.892101 1.161471 7.818977 -5.891174
1305031787.893095 1.161471 7.818977 -5.891174
1305031787.896343 1.053706 7.818977 -5.986966
1305031787.897359 1.053706 7.818977 -5.986966
1305031787.898850 1.053706 7.818977 -5.986966
1305031787.899923 1.053706 7.818977 -5.986966
1305031787.903207 1.161471 7.627394 -6.274340
1305031787.904295 1.161471 7.627394 -6.274340
1305031787.907469 1.257263 7.627394 -6.262366
1305031787.908451 1.257263 7.627394 -6.262366
1305031787.912067 1.448846 7.627394 -6.465923
1305031787.913074 1.448846 7.627394 -6.465923
1305031787.916341 1.448846 7.627394 -6.657506
1305031787.917341 1.448846 7.627394 -6.657506
1305031787.920949 1.448846 7.435812 -6.657506
1305031787.921931 1.448846 7.435812 -6.657506
1305031787.923168 1.448846 7.435812 -6.657506
1305031787.924339 1.448846 7.435812 -6.657506
1305031787.927467 1.448846 7.435812 -7.028698
1305031787.928470 1.448846 7.435812 -7.028698
1305031787.932057 1.293185 7.340020 -7.028698
1305031787.933062 1.293185 7.340020 -7.028698
1305031787.936410 1.448846 7.244229 -7.375942
1305031787.937300 1.448846 7.244229 -7.375942
1305031787.940969 1.269237 7.340020 -7.375942
1305031787.941982 1.269237 7.340020 -7.375942
1305031787.943202 1.269237 7.340020 -7.375942
1305031787.944347 1.269237 7.340020 -7.375942
1305031787.947338 1.269237 7.256203 -7.423838
1305031787.948471 1.269237 7.256203 -7.423838
1305031787.952097 1.257263 7.244229 -7.423838
1305031787.953097 1.257263 7.244229 -7.423838
1305031787.956343 1.257263 7.232255 -7.615421
1305031787.957325 1.257263 7.232255 -7.615421
1305031787.960949 1.053706 7.244229 -7.807003
1305031787.961927 1.053706 7.244229 -7.807003
1305031787.963198 1.053706 7.244229 -7.807003
1305031787.964351 1.053706 7.244229 -7.807003
1305031787.967310 1.161471 7.244229 -7.902795
1305031787.968437 1.161471 7.244229 -7.902795
1305031787.972045 1.053706 7.292124 -7.818977
1305031787.973107 1.053706 7.292124 -7.818977
1305031787.976325 0.862123 7.435812 -7.615421
1305031787.977471 0.862123 7.435812 -7.615421
1305031787.980948 0.778306 7.340020 -7.615421
1305031787.981924 0.778306 7.340020 -7.615421
1305031787.983207 0.778306 7.340020 -7.615421
1305031787.984323 0.778306 7.340020 -7.615421
1305031787.987328 0.862123 7.340020 -7.615421
1305031787.988467 0.862123 7.340020 -7.615421
1305031787.991943 0.862123 7.627394 -7.615421
1305031787.993102 0.862123 7.627394 -7.615421
1305031787.996344 0.862123 7.627394 -7.423838
1305031787.997362 0.862123 7.627394 -7.423838
1305031787.998442 0.862123 7.627394 -7.423838
1305031787.999563 0.862123 7.627394 -7.423838
1305031788.003039 0.862123 7.435812 -7.423838
1305031788.004174 0.862123 7.435812 -7.423838
1305031788.007330 0.910019 7.435812 -7.423838
1305031788.008478 0.910019 7.435812 -7.423838
1305031788.011938 0.910019 7.435812 -7.328046
1305031788.013093 0.910019 7.435812 -7.328046
1305031788.016339 1.053706 7.340020 -7.615421
1305031788.017348 1.053706 7.340020 -7.615421
1305031788.018429 1.053706 7.340020 -7.615421
1305031788.019594 1.053706 7.340020 -7.615421
1305031788.023084 1.161471 7.340020 -7.615421
1305031788.024216 1.161471 7.340020 -7.615421
1305031788.027327 1.209367 7.292124 -7.615421
1305031788.028476 1.209367 7.292124 -7.615421
1305031788.032044 1.053706 7.244229 -7.854899
1305031788.033049 1.053706 7.244229 -7.854899
1305031788.036299 1.257263 7.148437 -7.902795
1305031788.037326 1.257263 7.148437 -7.902795
1305031788.040962 1.257263 7.052646 -7.615421
1305031788.042064 1.257263 7.052646 -7.615421
1305031788.043213 1.257263 7.052646 -7.615421
1305031788.044342 1.257263 7.052646 -7.615421
1305031788.047496 1.257263 6.861063 -7.807003
1305031788.048450 1.257263 6.861063 -7.807003
1305031788.052046 1.257263 6.573688 -7.807003
1305031788.053098 1.257263 6.573688 -7.807003
1305031788.056345 1.257263 6.501845 -7.807003
1305031788.057344 1.257263 6.501845 -7.807003
1305031788.060936 1.053706 6.477897 -7.807003
1305031788.061922 1.053706 6.477897 -7.807003
1305031788.063218 1.053706 6.477897 -7.807003
1305031788.064342 1.053706 6.477897 -7.807003
1305031788.067436 1.053706 6.286314 -7.711212
1305031788.068429 1.053706 6.286314 -7.711212
1305031788.072043 1.053706 6.286314 -7.423838
1305031788.073219 1.053706 6.286314 -7.423838
1305031788.076342 1.053706 6.142627 -7.328046
1305031788.077326 1.053706 6.142627 -7.328046
1305031788.080952 1.245289 6.094731 -7.232255
1305031788.081923 1.245289 6.094731 -7.232255
1305031788.083217 1.245289 6.094731 -7.232255
1305031788.084200 1.245289 6.094731 -7.232255
1305031788.087453 1.053706 6.094731 -7.328046
1305031788.088474 1.053706 6.094731 -7.328046
1305031788.092062 1.245289 6.094731 -7.136463
1305031788.093090 1.245289 6.094731 -7.136463
1305031788.096330 1.053706 6.190523 -7.232255
1305031788.097326 1.053706 6.190523 -7.232255
1305031788.100960 1.053706 6.094731 -7.232255
1305031788.101914 1.053706 6.094731 -7.232255
1305031788.103172 1.053706 6.094731 -7.232255
1305031788.104298 1.053706 6.094731 -7.232255
1305031788.107475 0.862123 6.142627 -7.136463
1305031788.108473 0.862123 6.142627 -7.136463
1305031788.112092 0.874097 6.286314 -7.423838
1305031788.113096 0.874097 6.286314 -7.423838
1305031788.116324 0.910019 6.465923 -7.711212
1305031788.117326 0.910019 6.465923 -7.711212
1305031788.120958 0.886071 6.525793 -7.711212
1305031788.121924 0.886071 6.525793 -7.711212
1305031788.123225 0.886071 6.525793 -7.711212
1305031788.124303 0.886071 6.525793 -7.711212
1305031788.127328 0.957915 6.669480 -7.830951
1305031788.128466 0.957915 6.669480 -7.830951
1305031788.132050 0.910019 6.669480 -7.615421
1305031788.133053 0.910019 6.669480 -7.615421
1305031788.136302 0.862123 6.573688 -7.902795
1305031788.137474 0.862123 6.573688 -7.902795
1305031788.140982 1.053706 6.382106 -7.615421
1305031788.142067 1.053706 6.382106 -7.615421
1305031788.143202 1.053706 6.382106 -7.615421
1305031788.144340 1.053706 6.382106 -7.615421
1305031788.147468 1.053706 6.286314 -7.423838
1305031788.148478 1.053706 6.286314 -7.423838
1305031788.152103 1.053706 5.998940 -7.423838
1305031788.153095 1.053706 5.998940 -7.423838
1305031788.156356 1.161471 5.903148 -7.328046
1305031788.157332 1.161471 5.903148 -7.328046
1305031788.160950 1.245289 5.807357 -7.615421
1305031788.161931 1.245289 5.807357 -7.615421
1305031788.163199 1.245289 5.807357 -7.615421
1305031788.164338 1.245289 5.807357 -7.615421
1305031788.167308 1.161471 5.903148 -7.807003
1305031788.168429 1.161471 5.903148 -7.807003
1305031788.171932 1.053706 5.711565 -7.830951
1305031788.173123 1.053706 5.711565 -7.830951
1305031788.176345 1.161471 5.699591 -8.381752
1305031788.177372 1.161471 5.699591 -8.381752
1305031788.178555 1.161471 5.699591 -8.381752
1305031788.179644 1.161471 5.699591 -8.381752
1305031788.183200 0.957915 5.615774 -8.573335
1305031788.184199 0.957915 5.615774 -8.573335
1305031788.187354 1.161471 5.663670 -8.585309
1305031788.188447 1.161471 5.663670 -8.585309
1305031788.192107 0.862123 5.759461 -8.956501
1305031788.193106 0.862123 5.759461 -8.956501
1305031788.196327 0.682514 5.998940 -8.968475
1305031788.197327 0.682514 5.998940 -8.968475
1305031788.200967 0.682514 6.070783 -8.956501
1305031788.201915 0.682514 6.070783 -8.956501
1305031788.203172 0.682514 6.070783 -8.956501
1305031788.204168 0.682514 6.070783 -8.956501
1305031788.207455 0.574749 6.286314 -9.004397
1305031788.208452 0.574749 6.286314 -9.004397
1305031788.212138 0.850149 6.525793 -8.968475
1305031788.213094 0.850149 6.525793 -8.968475
1305031788.216311 0.682514 7.052646 -9.243875
1305031788.217465 0.682514 7.052646 -9.243875
1305031788.220979 0.682514 7.196333 -9.148084
1305031788.222076 0.682514 7.196333 -9.148084
1305031788.223348 0.682514 7.196333 -9.148084
1305031788.224339 0.682514 7.196333 -9.148084
1305031788.227466 0.862123 7.435812 -9.315719
1305031788.228479 0.862123 7.435812 -9.315719
1305031788.232046 0.682514 7.627394 -9.148084
1305031788.233052 0.682514 7.627394 -9.148084
1305031788.236305 0.778306 7.627394 -9.148084
1305031788.237384 0.778306 7.627394 -9.148084
1305031788.240961 0.682514 7.723186 -8.980449
1305031788.241922 0.682514 7.723186 -8.980449
1305031788.243219 0.682514 7.723186 -8.980449
1305031788.244199 0.682514 7.723186 -8.980449
1305031788.247471 0.682514 7.962665 -8.956501
1305031788.248474 0.682514 7.962665 -8.956501
1305031788.252060 0.526853 8.022534 -8.860709
1305031788.253260 0.526853 8.022534 -8.860709
1305031788.256310 0.395140 8.010560 -8.573335
1305031788.257348 0.395140 8.010560 -8.573335
1305031788.260980 0.143687 7.818977 -8.525439
1305031788.261951 0.143687 7.818977 -8.525439
1305031788.263228 0.143687 7.818977 -8.525439
1305031788.264340 0.143687 7.818977 -8.525439
1305031788.267434 0.287374 7.818977 -8.621231
1305031788.268439 0.287374 7.818977 -8.621231
1305031788.272040 0.478957 7.675290 -8.944527
1305031788.273082 0.478957 7.675290 -8.944527
1305031788.276348 0.682514 7.627394 -9.004397
1305031788.277326 0.682514 7.627394 -9.004397
1305031788.280951 0.526853 7.531603 -9.148084
1305031788.281924 0.526853 7.531603 -9.148084
1305031788.283226 0.526853 7.531603 -9.148084
1305031788.284310 0.526853 7.531603 -9.148084
1305031788.287480 0.526853 7.244229 -9.339667
1305031788.288429 0.526853 7.244229 -9.339667
1305031788.292072 0.682514 7.052646 -9.531250
1305031788.293203 0.682514 7.052646 -9.531250
1305031788.296345 0.682514 7.052646 -9.435458
1305031788.297302 0.682514 7.052646 -9.435458
1305031788.301071 0.862123 6.861063 -9.722832
1305031788.302040 0.862123 6.861063 -9.722832
1305031788.303311 0.862123 6.861063 -9.722832
1305031788.304310 0.862123 6.861063 -9.722832
1305031788.307442 0.862123 6.861063 -9.914415
1305031788.308450 0.862123 6.861063 -9.914415
1305031788.312101 0.778306 6.765271 -9.914415
1305031788.313089 0.778306 6.765271 -9.914415
1305031788.316328 0.862123 6.669480 -10.010207
1305031788.317471 0.862123 6.669480 -10.010207
1305031788.321101 0.862123 6.573688 -10.201790
1305031788.322068 0.862123 6.573688 -10.201790
1305031788.323338 0.862123 6.573688 -10.201790
1305031788.324324 0.862123 6.573688 -10.201790
1305031788.327469 0.874097 6.669480 -9.914415
1305031788.328428 0.874097 6.669480 -9.914415
1305031788.332047 1.053706 6.669480 -9.914415
1305031788.333050 1.053706 6.669480 -9.914415
1305031788.336311 1.053706 6.669480 -9.710859
1305031788.337372 1.053706 6.669480 -9.710859
1305031788.340982 0.957915 6.477897 -9.387562
1305031788.341923 0.957915 6.477897 -9.387562
1305031788.343203 0.957915 6.477897 -9.387562
1305031788.344338 0.957915 6.477897 -9.387562
1305031788.347468 0.862123 6.382106 -9.052292
1305031788.348466 0.862123 6.382106 -9.052292
1305031788.352124 0.862123 6.382106 -8.980449
1305031788.353075 0.862123 6.382106 -8.980449
1305031788.356326 0.862123 6.430001 -8.764918
1305031788.357467 0.862123 6.430001 -8.764918
1305031788.360983 0.886071 6.477897 -8.764918
1305031788.361935 0.886071 6.477897 -8.764918
1305031788.363194 0.886071 6.477897 -8.764918
1305031788.364353 0.886071 6.477897 -8.764918
1305031788.367308 1.161471 6.453949 -8.621231
1305031788.368427 1.161471 6.453949 -8.621231
1305031788.372043 0.910019 6.477897 -8.573335
1305031788.373092 0.910019 6.477897 -8.573335
1305031788.376342 1.053706 6.477897 -8.669126
1305031788.377510 1.053706 6.477897 -8.669126
1305031788.380970 0.910019 6.669480 -8.573335
1305031788.381924 0.910019 6.669480 -8.573335
1305031788.383218 0.910019 6.669480 -8.573335
1305031788.384350 0.910019 6.669480 -8.573335
1305031788.387498 0.957915 6.861063 -8.764918
1305031788.388469 0.957915 6.861063 -8.764918
1305031788.392060 0.862123 6.908959 -8.764918
1305031788.393081 0.862123 6.908959 -8.764918
1305031788.396326 1.053706 6.861063 -8.908605
1305031788.397465 1.053706 6.861063 -8.908605
1305031788.401084 0.957915 7.052646 -8.764918
1305031788.402081 0.957915 7.052646 -8.764918
1305031788.403186 0.957915 7.052646 -8.764918
1305031788.404306 0.957915 7.052646 -8.764918
1305031788.407455 1.161471 6.908959 -8.860709
1305031788.408468 1.161471 6.908959 -8.860709
1305031788.412098 1.209367 6.861063 -8.764918
1305031788.413087 1.209367 6.861063 -8.764918
1305031788.416352 1.209367 6.956854 -8.908605
1305031788.417375 1.209367 6.956854 -8.908605
1305031788.418856 1.209367 6.956854 -8.908605
1305031788.419997 1.209367 6.956854 -8.908605
1305031788.423188 1.233315 6.861063 -8.968475
1305031788.424350 1.233315 6.861063 -8.968475
1305031788.427330 1.257263 6.669480 -8.764918
1305031788.428476 1.257263 6.669480 -8.764918
1305031788.432039 1.269237 6.489871 -8.764918
1305031788.433081 1.269237 6.489871 -8.764918
1305031788.436348 1.257263 6.382106 -8.764918
1305031788.437381 1.257263 6.382106 -8.764918
1305031788.440969 1.448846 6.142627 -8.669126
1305031788.441923 1.448846 6.142627 -8.669126
1305031788.443247 1.448846 6.142627 -8.669126
1305031788.444355 1.448846 6.142627 -8.669126
1305031788.447320 1.448846 5.711565 -8.621231
1305031788.448450 1.448846 5.711565 -8.621231
1305031788.452094 1.341080 5.711565 -8.381752
1305031788.453058 1.341080 5.711565 -8.381752
1305031788.456328 1.341080 5.615774 -8.190169
1305031788.457380 1.341080 5.615774 -8.190169
1305031788.458858 1.341080 5.615774 -8.190169
1305031788.459935 1.341080 5.615774 -8.190169
1305031788.463175 1.448846 5.711565 -7.807003
1305031788.464349 1.448846 5.711565 -7.807003
1305031788.467333 1.257263 5.807357 -7.807003
1305031788.468442 1.257263 5.807357 -7.807003
1305031788.472044 1.257263 5.711565 -7.807003
1305031788.473057 1.257263 5.711565 -7.807003
1305031788.476327 1.341080 5.807357 -7.807003
1305031788.477356 1.341080 5.807357 -7.807003
1305031788.480948 1.245289 6.094731 -7.998586
1305031788.481926 1.245289 6.094731 -7.998586
1305031788.483220 1.245289 6.094731 -7.998586
1305031788.484343 1.245289 6.094731 -7.998586
1305031788.487507 1.257263 6.286314 -7.998586
1305031788.488482 1.257263 6.286314 -7.998586
1305031788.492229 1.293185 6.477897 -7.807003
1305031788.493221 1.293185 6.477897 -7.807003
1305031788.496348 1.293185 6.477897 -7.807003
1305031788.497325 1.293185 6.477897 -7.807003
1305031788.500960 1.341080 6.765271 -7.783056
1305031788.501915 1.341080 6.765271 -7.783056
1305031788.503183 1.341080 6.765271 -7.783056
1305031788.504300 1.341080 6.765271 -7.783056
1305031788.507450 1.341080 6.669480 -7.854899
1305031788.508481 1.341080 6.669480 -7.854899
1305031788.512096 1.448846 6.573688 -7.807003
1305031788.513098 1.448846 6.573688 -7.807003
1305031788.516347 1.448846 6.669480 -7.998586
1305031788.517349 1.448846 6.669480 -7.998586
1305031788.520983 1.341080 6.669480 -7.807003
1305031788.521926 1.341080 6.669480 -7.807003
1305031788.523176 1.341080 6.669480 -7.807003
1305031788.524179 1.341080 6.669480 -7.807003
1305031788.527479 1.592533 6.477897 -7.807003
1305031788.528430 1.592533 6.477897 -7.807003
1305031788.532046 1.448846 6.453949 -7.795029
1305031788.533061 1.448846 6.453949 -7.795029
1305031788.536315 1.448846 6.286314 -7.807003
1305031788.537452 1.448846 6.286314 -7.807003
1305031788.541068 1.448846 6.190523 -7.854899
1305031788.542062 1.448846 6.190523 -7.854899
1305031788.543199 1.448846 6.190523 -7.854899
1305031788.544330 1.448846 6.190523 -7.854899
1305031788.547328 1.448846 6.094731 -7.807003
1305031788.548470 1.448846 6.094731 -7.807003
1305031788.552076 1.448846 6.082757 -7.711212
1305031788.553103 1.448846 6.082757 -7.711212
1305031788.556218 1.257263 6.094731 -7.519629
1305031788.557211 1.257263 6.094731 -7.519629
1305031788.558454 1.257263 6.094731 -7.519629
1305031788.559501 1.257263 6.094731 -7.519629
1305031788.563095 1.448846 6.094731 -7.615421
1305031788.564219 1.448846 6.094731 -7.615421
1305031788.567440 1.448846 6.190523 -7.423838
1305031788.568430 1.448846 6.190523 -7.423838
1305031788.572045 1.448846 6.286314 -7.411864
1305031788.573079 1.448846 6.286314 -7.411864
1305031788.576327 1.448846 6.430001 -7.232255
1305031788.577327 1.448846 6.430001 -7.232255
1305031788.581104 1.640429 6.430001 -7.088568
1305031788.582068 1.640429 6.430001 -7.088568
1305031788.583344 1.640429 6.430001 -7.088568
1305031788.584342 1.640429 6.430001 -7.088568
1305031788.587478 1.341080 6.477897 -6.992776
1305031788.588472 1.341080 6.477897 -6.992776
1305031788.592096 1.628455 6.477897 -6.944880
1305031788.593096 1.628455 6.477897 -6.944880
1305031788.596324 1.640429 6.465923 -7.016724
1305031788.597329 1.640429 6.465923 -7.016724
1305031788.600974 1.640429 6.477897 -7.040672
1305031788.601916 1.640429 6.477897 -7.040672
1305031788.603188 1.640429 6.477897 -7.040672
1305031788.604185 1.640429 6.477897 -7.040672
1305031788.607440 1.640429 6.430001 -7.040672
1305031788.608470 1.640429 6.430001 -7.040672
1305031788.612080 1.640429 6.382106 -7.040672
1305031788.613076 1.640429 6.382106 -7.040672
1305031788.616347 1.640429 6.286314 -7.232255
1305031788.617347 1.640429 6.286314 -7.232255
1305031788.618597 1.640429 6.286314 -7.232255
1305031788.619641 1.640429 6.286314 -7.232255
1305031788.623095 1.820038 6.286314 -7.232255
1305031788.624195 1.820038 6.286314 -7.232255
1305031788.627314 1.820038 6.430001 -7.423838
1305031788.628468 1.820038 6.430001 -7.423838
1305031788.632055 1.628455 6.525793 -7.136463
1305031788.633095 1.628455 6.525793 -7.136463
1305031788.636313 1.652403 6.669480 -7.399890
1305031788.637339 1.652403 6.669480 -7.399890
1305031788.638859 1.652403 6.669480 -7.399890
1305031788.639972 1.652403 6.669480 -7.399890
1305031788.643219 1.544637 6.861063 -7.471733
1305031788.644318 1.544637 6.861063 -7.471733
1305031788.647429 1.628455 7.148437 -7.423838
1305031788.648427 1.628455 7.148437 -7.423838
1305031788.652045 1.640429 7.148437 -7.423838
1305031788.653095 1.640429 7.148437 -7.423838
1305031788.656314 1.628455 7.220281 -7.232255
1305031788.657366 1.628455 7.220281 -7.232255
1305031788.660954 1.640429 7.196333 -7.088568
1305031788.661926 1.640429 7.196333 -7.088568
1305031788.663218 1.640429 7.196333 -7.088568
1305031788.664204 1.640429 7.196333 -7.088568
1305031788.667445 1.448846 7.292124 -6.657506
1305031788.668441 1.448846 7.292124 -6.657506
1305031788.672045 1.293185 7.579499 -6.657506
1305031788.673063 1.293185 7.579499 -6.657506
1305031788.676328 1.257263 7.435812 -6.657506
1305031788.677303 1.257263 7.435812 -6.657506
1305031788.681095 1.257263 7.627394 -6.178549
1305031788.682078 1.257263 7.627394 -6.178549
1305031788.683327 1.257263 7.627394 -6.178549
1305031788.684461 1.257263 7.627394 -6.178549
1305031788.687366 1.233315 7.627394 -6.082757
1305031788.688478 1.233315 7.627394 -6.082757
1305031788.691979 1.209367 7.675290 -5.891174
1305031788.693095 1.209367 7.675290 -5.891174
1305031788.696364 1.161471 7.962665 -5.891174
1305031788.697353 1.161471 7.962665 -5.891174
1305031788.698805 1.161471 7.962665 -5.891174
1305031788.699926 1.161471 7.962665 -5.891174
1305031788.703181 1.053706 7.818977 -5.891174
1305031788.704177 1.053706 7.818977 -5.891174
1305031788.707335 1.257263 7.962665 -5.986966
1305031788.708481 1.257263 7.962665 -5.986966
1305031788.712075 1.245289 7.914769 -6.082757
1305031788.713079 1.245289 7.914769 -6.082757
1305031788.716202 1.448846 7.914769 -6.226444
1305031788.717353 1.448846 7.914769 -6.226444
1305031788.718432 1.448846 7.914769 -6.226444
1305031788.719451 1.448846 7.914769 -6.226444
1305031788.723076 1.257263 7.914769 -6.226444
1305031788.724199 1.257263 7.914769 -6.226444
1305031788.727344 1.257263 8.010560 -6.250392
1305031788.728334 1.257263 8.010560 -6.250392
1305031788.731920 1.257263 7.914769 -6.286314
1305031788.732954 1.257263 7.914769 -6.286314
1305031788.736182 1.257263 7.818977 -6.465923
1305031788.737344 1.257263 7.818977 -6.465923
1305031788.738462 1.257263 7.818977 -6.465923
1305031788.739606 1.257263 7.818977 -6.465923
1305031788.743062 1.053706 7.962665 -6.370132
1305031788.744218 1.053706 7.962665 -6.370132
1305031788.747469 1.269237 7.818977 -6.633558
1305031788.748447 1.269237 7.818977 -6.633558
1305031788.752203 1.053706 7.818977 -6.286314
1305031788.753248 1.053706 7.818977 -6.286314
1305031788.756376 0.957915 7.914769 -6.465923
1305031788.757344 0.957915 7.914769 -6.465923
1305031788.760955 0.862123 8.010560 -6.274340
1305031788.761933 0.862123 8.010560 -6.274340
1305031788.763209 0.862123 8.010560 -6.274340
1305031788.764210 0.862123 8.010560 -6.274340
1305031788.767320 0.957915 8.034508 -6.274340
1305031788.768430 0.957915 8.034508 -6.274340
1305031788.771927 1.053706 8.202143 -6.274340
1305031788.772928 1.053706 8.202143 -6.274340
1305031788.776241 0.957915 8.393726 -6.274340
1305031788.777348 0.957915 8.393726 -6.274340
1305031788.778455 0.957915 8.393726 -6.274340
1305031788.779553 0.957915 8.393726 -6.274340
1305031788.783221 0.826201 8.489518 -5.939070
1305031788.784223 0.826201 8.489518 -5.939070
1305031788.787312 0.862123 8.728996 -5.903148
1305031788.788454 0.862123 8.728996 -5.903148
1305031788.792105 0.862123 8.393726 -5.891174
1305031788.793080 0.862123 8.393726 -5.891174
1305031788.796343 0.886071 8.489518 -5.699591
1305031788.797323 0.886071 8.489518 -5.699591
1305031788.800929 0.826201 8.585309 -5.603800
1305031788.801915 0.826201 8.585309 -5.603800
1305031788.803172 0.826201 8.585309 -5.603800
1305031788.804171 0.826201 8.585309 -5.603800
1305031788.807480 0.862123 8.393726 -5.508009
1305031788.808429 0.862123 8.393726 -5.508009
1305031788.812064 0.862123 8.393726 -5.316426
1305031788.813221 0.862123 8.393726 -5.316426
1305031788.816346 0.886071 8.297935 -5.124843
1305031788.817337 0.886071 8.297935 -5.124843
1305031788.820982 0.862123 8.202143 -5.220634
1305031788.821936 0.862123 8.202143 -5.220634
1305031788.823217 0.862123 8.202143 -5.220634
1305031788.824330 0.862123 8.202143 -5.220634
1305031788.827331 0.682514 8.202143 -5.316426
1305031788.828450 0.682514 8.202143 -5.316426
1305031788.832046 0.682514 8.297935 -5.124843
1305031788.833053 0.682514 8.297935 -5.124843
1305031788.836310 0.478957 8.345830 -5.124843
1305031788.837349 0.478957 8.345830 -5.124843
1305031788.840971 0.478957 8.202143 -5.136817
1305031788.841925 0.478957 8.202143 -5.136817
1305031788.843176 0.478957 8.202143 -5.136817
1305031788.844201 0.478957 8.202143 -5.136817
1305031788.847462 0.478957 8.010560 -5.460113
1305031788.848597 0.478957 8.010560 -5.460113
1305031788.852062 0.443035 8.106352 -5.316426
1305031788.853249 0.443035 8.106352 -5.316426
1305031788.856345 0.395140 8.393726 -5.316426
1305031788.857455 0.395140 8.393726 -5.316426
1305031788.860955 0.466983 8.393726 -5.316426
1305031788.862061 0.466983 8.393726 -5.316426
1305031788.863204 0.466983 8.393726 -5.316426
1305031788.864375 0.466983 8.393726 -5.316426
1305031788.867307 0.287374 8.441622 -5.172738
1305031788.868425 0.287374 8.441622 -5.172738
1305031788.872056 0.443035 8.585309 -5.316426
1305031788.873098 0.443035 8.585309 -5.316426
1305031788.876344 0.287374 8.585309 -5.496035
1305031788.877307 0.287374 8.585309 -5.496035
1305031788.880933 0.191583 8.681100 -5.412217
1305031788.881927 0.191583 8.681100 -5.412217
1305031788.883220 0.191583 8.681100 -5.412217
1305031788.884351 0.191583 8.681100 -5.412217
1305031788.887307 0.443035 8.681100 -5.316426
1305031788.888479 0.443035 8.681100 -5.316426
1305031788.892076 0.287374 8.776892 -5.124843
1305031788.893084 0.287374 8.776892 -5.124843
1305031788.896343 0.395140 8.800840 -5.076947
1305031788.897345 0.395140 8.800840 -5.076947
1305031788.898437 0.395140 8.800840 -5.076947
1305031788.899552 0.395140 8.800840 -5.076947
1305031788.903181 0.191583 9.160058 -4.789573
1305031788.904176 0.191583 9.160058 -4.789573
1305031788.907351 0.191583 9.112162 -4.789573
1305031788.908472 0.191583 9.112162 -4.789573
1305031788.911922 0.287374 9.184006 -4.741677
1305031788.913094 0.287374 9.184006 -4.741677
1305031788.916220 0.107765 9.255849 -4.741677
1305031788.917231 0.107765 9.255849 -4.741677
1305031788.918427 0.107765 9.255849 -4.741677
1305031788.919471 0.107765 9.255849 -4.741677
1305031788.923218 0.107765 9.447432 -4.262720
1305031788.924225 0.107765 9.447432 -4.262720
1305031788.927469 0.191583 9.543224 -4.166928
1305031788.928466 0.191583 9.543224 -4.166928
1305031788.932049 0.287374 9.543224 -3.975345
1305031788.933055 0.287374 9.543224 -3.975345
1305031788.936311 0.191583 9.555197 -3.879554
1305031788.937370 0.191583 9.555197 -3.879554
1305031788.940969 0.287374 9.543224 -3.592179
1305031788.941926 0.287374 9.543224 -3.592179
1305031788.943202 0.287374 9.543224 -3.592179
1305031788.944348 0.287374 9.543224 -3.592179
1305031788.947470 0.287374 9.519276 -3.209014
1305031788.948453 0.287374 9.519276 -3.209014
1305031788.952061 0.478957 9.351641 -3.209014
1305031788.953115 0.478957 9.351641 -3.209014
1305031788.956329 0.287374 9.447432 -3.209014
1305031788.957356 0.287374 9.447432 -3.209014
1305031788.960937 0.287374 9.160058 -3.209014
1305031788.961944 0.287374 9.160058 -3.209014
1305031788.963218 0.287374 9.160058 -3.209014
1305031788.964193 0.287374 9.160058 -3.209014
1305031788.967311 0.287374 9.160058 -3.209014
1305031788.968440 0.287374 9.160058 -3.209014
1305031788.972046 0.478957 8.968475 -3.304805
1305031788.973111 0.478957 8.968475 -3.304805
1305031788.976345 0.478957 8.824788 -3.592179
1305031788.977353 0.478957 8.824788 -3.592179
1305031788.978598 0.478957 8.824788 -3.592179
1305031788.979927 0.478957 8.824788 -3.592179
1305031788.983221 0.478957 8.776892 -3.616127
1305031788.984220 0.478957 8.776892 -3.616127
1305031788.987427 0.443035 8.776892 -3.783762
1305031788.988454 0.443035 8.776892 -3.783762
1305031788.992063 0.395140 8.776892 -3.783762
1305031788.993258 0.395140 8.776892 -3.783762
1305031788.996331 0.478957 8.728996 -3.783762
1305031788.997327 0.478957 8.728996 -3.783762
1305031789.000934 0.191583 8.776892 -3.592179
1305031789.001918 0.191583 8.776892 -3.592179
1305031789.003180 0.191583 8.776892 -3.592179
1305031789.004312 0.191583 8.776892 -3.592179
1305031789.007305 0.287374 8.776892 -3.687971
1305031789.008471 0.287374 8.776892 -3.687971
1305031789.012096 0.287374 8.968475 -3.687971
1305031789.013094 0.287374 8.968475 -3.687971
1305031789.016349 0.191583 8.776892 -3.879554
1305031789.017327 0.191583 8.776892 -3.879554
1305031789.020980 0.107765 8.800840 -3.592179
1305031789.021925 0.107765 8.800840 -3.592179
1305031789.023220 0.107765 8.800840 -3.592179
1305031789.024351 0.107765 8.800840 -3.592179
1305031789.027470 0.095791 8.824788 -3.783762
1305031789.028468 0.095791 8.824788 -3.783762
1305031789.032042 0.107765 8.968475 -3.687971
1305031789.033052 0.107765 8.968475 -3.687971
1305031789.036352 0.107765 9.064266 -3.879554
1305031789.037331 0.107765 9.064266 -3.879554
1305031789.040953 0.095791 9.064266 -3.592179
1305031789.041927 0.095791 9.064266 -3.592179
1305031789.043201 0.095791 9.064266 -3.592179
1305031789.044334 0.095791 9.064266 -3.592179
1305031789.047347 0.119739 9.136110 -3.592179
1305031789.048454 0.119739 9.136110 -3.592179
1305031789.051921 0.107765 9.064266 -3.592179
1305031789.052973 0.107765 9.064266 -3.592179
1305031789.056347 0.143687 9.160058 -3.687971
1305031789.057343 0.143687 9.160058 -3.687971
1305031789.058456 0.143687 9.160058 -3.687971
1305031789.059596 0.143687 9.160058 -3.687971
1305031789.063101 0.466983 8.968475 -3.687971
1305031789.064218 0.466983 8.968475 -3.687971
1305031789.067343 0.287374 8.968475 -3.783762
1305031789.068430 0.287374 8.968475 -3.783762
1305031789.072047 0.191583 9.064266 -3.640075
1305031789.073095 0.191583 9.064266 -3.640075
1305031789.076395 0.191583 9.112162 -3.640075
1305031789.077387 0.191583 9.112162 -3.640075
1305031789.080947 0.443035 8.872683 -3.640075
1305031789.081927 0.443035 8.872683 -3.640075
1305031789.083202 0.443035 8.872683 -3.640075
1305031789.084195 0.443035 8.872683 -3.640075
1305031789.087439 0.395140 8.968475 -3.304805
1305031789.088455 0.395140 8.968475 -3.304805
1305031789.092083 0.287374 9.064266 -3.592179
1305031789.093221 0.287374 9.064266 -3.592179
1305031789.096328 0.466983 8.968475 -3.400597
1305031789.097344 0.466983 8.968475 -3.400597
1305031789.100967 0.107765 9.160058 -3.209014
1305031789.101927 0.107765 9.160058 -3.209014
1305031789.103180 0.107765 9.160058 -3.209014
1305031789.104313 0.107765 9.160058 -3.209014
1305031789.107329 0.143687 9.160058 -3.113222
1305031789.108461 0.143687 9.160058 -3.113222
1305031789.112097 0.191583 9.160058 -2.849796
1305031789.113093 0.191583 9.160058 -2.849796
1305031789.116344 0.107765 9.160058 -2.921639
1305031789.117326 0.107765 9.160058 -2.921639
1305031789.120936 0.191583 9.160058 -2.921639
1305031789.121925 0.191583 9.160058 -2.921639
1305031789.123216 0.191583 9.160058 -2.921639
1305031789.124217 0.191583 9.160058 -2.921639
1305031789.127329 0.191583 9.207953 -2.825848
1305031789.128431 0.191583 9.207953 -2.825848
1305031789.131962 0.191583 9.148084 -2.921639
1305031789.133137 0.191583 9.148084 -2.921639
1305031789.136311 0.107765 9.148084 -2.442682
1305031789.137305 0.107765 9.148084 -2.442682
1305031789.140943 0.095791 9.064266 -2.634265
1305031789.141929 0.095791 9.064266 -2.634265
1305031789.143203 0.095791 9.064266 -2.634265
1305031789.144307 0.095791 9.064266 -2.634265
1305031789.147316 0.191583 8.968475 -2.634265
1305031789.148492 0.191583 8.968475 -2.634265
1305031789.151960 0.095791 8.968475 -2.346891
1305031789.153089 0.095791 8.968475 -2.346891
1305031789.156345 0.107765 8.824788 -2.155308
1305031789.157353 0.107765 8.824788 -2.155308
1305031789.158444 0.107765 8.824788 -2.155308
1305031789.159643 0.107765 8.824788 -2.155308
1305031789.163248 0.191583 8.872683 -2.059516
1305031789.164223 0.191583 8.872683 -2.059516
1305031789.167345 0.191583 8.776892 -2.083464
1305031789.168430 0.191583 8.776892 -2.083464
1305031789.172051 0.095791 8.968475 -1.867933
1305031789.173096 0.095791 8.968475 -1.867933
1305031789.176347 0.143687 8.776892 -1.676350
1305031789.177329 0.143687 8.776892 -1.676350
1305031789.180964 0.143687 8.776892 -1.664376
1305031789.181928 0.143687 8.776892 -1.664376
1305031789.182929 0.143687 8.776892 -1.664376
1305031789.186346 0.443035 8.872683 -1.724246
1305031789.187399 0.443035 8.872683 -1.724246
1305031789.188807 0.443035 8.872683 -1.724246
1305031789.189947 0.443035 8.872683 -1.724246
1305031789.193234 0.107765 9.136110 -1.676350
1305031789.194214 0.107765 9.136110 -1.676350
1305031789.197435 0.287374 8.968475 -1.772142
1305031789.198441 0.287374 8.968475 -1.772142
1305031789.202105 0.287374 8.872683 -2.059516
1305031789.203062 0.287374 8.872683 -2.059516
1305031789.206332 0.287374 9.064266 -2.059516
1305031789.207345 0.287374 9.064266 -2.059516
1305031789.210976 0.107765 9.064266 -1.963725
1305031789.211923 0.107765 9.064266 -1.963725
1305031789.213087 0.107765 9.064266 -1.963725
1305031789.216400 0.478957 9.160058 -2.059516
1305031789.217333 0.478957 9.160058 -2.059516
1305031789.220951 0.395140 9.255849 -1.867933
1305031789.221926 0.395140 9.255849 -1.867933
1305031789.223227 0.395140 9.255849 -1.867933
1305031789.224174 0.395140 9.255849 -1.867933
1305031789.227483 0.478957 9.207953 -1.963725
1305031789.228431 0.478957 9.207953 -1.963725
1305031789.232067 0.478957 9.207953 -2.059516
1305031789.233096 0.478957 9.207953 -2.059516
1305031789.236319 0.287374 9.160058 -1.867933
1305031789.237316 0.287374 9.160058 -1.867933
1305031789.240966 0.287374 9.160058 -1.772142
1305031789.241934 0.287374 9.160058 -1.772142
1305031789.243223 0.287374 9.160058 -1.772142
1305031789.244330 0.287374 9.160058 -1.772142
1305031789.247349 0.191583 9.136110 -1.772142
1305031789.248469 0.191583 9.136110 -1.772142
1305031789.251945 0.287374 9.112162 -1.676350
1305031789.253093 0.287374 9.112162 -1.676350
1305031789.256355 0.191583 9.160058 -1.580559
1305031789.257352 0.191583 9.160058 -1.580559
1305031789.258453 0.191583 9.160058 -1.580559
1305031789.259599 0.191583 9.160058 -1.580559
1305031789.263082 0.143687 8.968475 -1.341080
1305031789.264222 0.143687 8.968475 -1.341080
1305031789.267316 0.191583 8.968475 -1.293185
1305031789.268442 0.191583 8.968475 -1.293185
1305031789.271932 0.191583 8.968475 -1.317132
1305031789.272990 0.191583 8.968475 -1.317132
1305031789.276346 0.107765 9.160058 -1.005810
1305031789.277350 0.107765 9.160058 -1.005810
1305031789.278895 0.107765 9.160058 -1.005810
1305031789.279941 0.107765 9.160058 -1.005810
1305031789.283223 0.107765 8.968475 -0.718436
1305031789.284312 0.107765 8.968475 -0.718436
1305031789.287513 0.287374 8.872683 -0.526853
1305031789.288459 0.287374 8.872683 -0.526853
1305031789.291938 0.107765 8.968475 -0.431062
1305031789.293104 0.107765 8.968475 -0.431062
1305031789.296205 0.395140 8.968475 -0.526853
1305031789.297195 0.395140 8.968475 -0.526853
1305031789.298427 0.395140 8.968475 -0.526853
1305031789.299419 0.395140 8.968475 -0.526853
1305031789.303067 0.143687 9.160058 -0.191583
1305031789.304220 0.143687 9.160058 -0.191583
1305031789.307302 0.287374 9.207953 -0.335270
1305031789.308441 0.287374 9.207953 -0.335270
1305031789.312065 0.443035 9.160058 -0.143687
1305031789.313096 0.443035 9.160058 -0.143687
1305031789.316329 0.478957 9.148084 -0.526853
1305031789.317333 0.478957 9.148084 -0.526853
1305031789.320954 0.478957 9.148084 -0.526853
1305031789.321926 0.478957 9.148084 -0.526853
1305031789.323219 0.478957 9.148084 -0.526853
1305031789.324219 0.478957 9.148084 -0.526853
1305031789.327334 0.478957 9.160058 -0.526853
1305031789.328474 0.478957 9.160058 -0.526853
1305031789.331944 0.682514 9.160058 -0.622644
1305031789.332975 0.682514 9.160058 -0.622644
1305031789.336195 0.574749 9.112162 -0.718436
1305031789.337317 0.574749 9.112162 -0.718436
1305031789.338444 0.574749 9.112162 -0.718436
1305031789.339558 0.574749 9.112162 -0.718436
1305031789.343225 0.682514 8.872683 -0.526853
1305031789.344182 0.682514 8.872683 -0.526853
1305031789.347473 0.682514 8.776892 -0.622644
1305031789.348481 0.682514 8.776892 -0.622644
1305031789.352049 0.490931 8.776892 -0.526853
1305031789.353103 0.490931 8.776892 -0.526853
1305031789.356329 0.478957 8.776892 -0.622644
1305031789.357356 0.478957 8.776892 -0.622644
1305031789.360956 0.478957 8.776892 -0.814227
1305031789.361928 0.478957 8.776892 -0.814227
1305031789.363204 0.478957 8.776892 -0.814227
1305031789.364354 0.478957 8.776892 -0.814227
1305031789.367319 0.574749 8.776892 -0.910019
1305031789.368443 0.574749 8.776892 -0.910019
1305031789.371931 0.490931 8.776892 -0.910019
1305031789.373096 0.490931 8.776892 -0.910019
1305031789.376207 0.778306 8.776892 -0.862123
1305031789.377206 0.778306 8.776892 -0.862123
1305031789.378474 0.778306 8.776892 -0.862123
1305031789.379438 0.778306 8.776892 -0.862123
1305031789.383103 0.574749 8.968475 -0.718436
1305031789.384230 0.574749 8.968475 -0.718436
1305031789.387329 0.478957 8.968475 -0.574749
1305031789.388459 0.478957 8.968475 -0.574749
1305031789.391944 0.478957 9.064266 -0.526853
1305031789.393099 0.478957 9.064266 -0.526853
1305031789.396345 0.478957 8.968475 -0.335270
1305031789.397356 0.478957 8.968475 -0.335270
1305031789.398823 0.478957 8.968475 -0.335270
1305031789.399946 0.478957 8.968475 -0.335270
1305031789.403190 0.443035 9.064266 -0.143687
1305031789.404204 0.443035 9.064266 -0.143687
1305031789.407313 0.478957 8.968475 -0.143687
1305031789.408482 0.478957 8.968475 -0.143687
1305031789.411925 0.478957 8.872683 -0.047896
1305031789.412965 0.478957 8.872683 -0.047896
1305031789.416220 0.574749 8.776892 0.047896
1305031789.417222 0.574749 8.776892 0.047896
1305031789.418470 0.574749 8.776892 0.047896
1305031789.419478 0.574749 8.776892 0.047896
1305031789.422940 0.682514 8.872683 -0.143687
1305031789.424098 0.682514 8.872683 -0.143687
1305031789.427205 0.778306 8.776892 -0.143687
1305031789.428331 0.778306 8.776892 -0.143687
1305031789.431358 0.574749 8.776892 -0.143687
1305031789.432349 0.574749 8.776892 -0.143687
1305031789.433805 0.574749 8.776892 -0.143687
1305031789.434940 0.574749 8.776892 -0.143687
1305031789.438194 0.682514 8.681100 -0.191583
1305031789.439189 0.682514 8.681100 -0.191583
1305031789.442353 0.682514 8.585309 -0.143687
1305031789.443332 0.682514 8.585309 -0.143687
1305031789.446934 0.682514 8.585309 0.047896
1305031789.447944 0.682514 8.585309 0.047896
1305031789.448959 0.682514 8.585309 0.047896
1305031789.452336 0.526853 8.393726 0.143687
1305031789.453331 0.526853 8.393726 0.143687
1305031789.456640 0.778306 8.297935 0.047896
1305031789.457816 0.778306 8.297935 0.047896
1305031789.461232 0.826201 8.202143 -0.095791
1305031789.462219 0.826201 8.202143 -0.095791
1305031789.463328 0.826201 8.202143 -0.095791
1305031789.464480 0.826201 8.202143 -0.095791
1305031789.468050 0.862123 8.106352 -0.191583
1305031789.469066 0.862123 8.106352 -0.191583
1305031789.472377 0.682514 8.369778 -0.143687
1305031789.473348 0.682514 8.369778 -0.143687
1305031789.476810 0.574749 8.202143 -0.143687
1305031789.477938 0.574749 8.202143 -0.143687
1305031789.481252 0.778306 8.034508 -0.431062
1305031789.482200 0.778306 8.034508 -0.431062
1305031789.483473 0.778306 8.034508 -0.431062
1305031789.484572 0.778306 8.034508 -0.431062
1305031789.488095 0.478957 8.058456 -0.239479
1305031789.489193 0.478957 8.058456 -0.239479
1305031789.492455 0.478957 8.202143 -0.526853
1305031789.493458 0.478957 8.202143 -0.526853
1305031789.497099 0.478957 8.202143 -0.431062
1305031789.498069 0.478957 8.202143 -0.431062
1305031789.501358 0.478957 8.202143 -0.335270
1305031789.502352 0.478957 8.202143 -0.335270
1305031789.505936 0.443035 8.297935 -0.191583
1305031789.506931 0.443035 8.297935 -0.191583
1305031789.508206 0.443035 8.297935 -0.191583
1305031789.509361 0.443035 8.297935 -0.191583
1305031789.512475 0.287374 8.585309 -0.335270
1305031789.513476 0.287374 8.585309 -0.335270
1305031789.517103 0.107765 8.776892 -0.143687
1305031789.518093 0.107765 8.776892 -0.143687
1305031789.521362 0.287374 8.776892 -0.047896
1305031789.522357 0.287374 8.776892 -0.047896
1305031789.523604 0.287374 8.776892 -0.047896
1305031789.524953 0.287374 8.776892 -0.047896
1305031789.528210 0.287374 8.968475 0.143687
1305031789.529208 0.287374 8.968475 0.143687
1305031789.532514 0.287374 9.160058 0.431062
1305031789.533461 0.287374 9.160058 0.431062
1305031789.536948 0.443035 9.064266 0.287374
1305031789.538070 0.443035 9.064266 0.287374
1305031789.541226 0.478957 9.064266 0.335270
1305031789.542201 0.478957 9.064266 0.335270
1305031789.543456 0.478957 9.064266 0.335270
1305031789.544603 0.478957 9.064266 0.335270
1305031789.548083 0.443035 8.968475 0.287374
1305031789.549081 0.443035 8.968475 0.287374
1305031789.552369 0.119739 8.872683 0.431062
1305031789.553388 0.119739 8.872683 0.431062
1305031789.556936 0.107765 8.776892 0.526853
1305031789.557991 0.107765 8.776892 0.526853
1305031789.561222 0.191583 8.764918 0.526853
1305031789.562225 0.191583 8.764918 0.526853
1305031789.563474 0.191583 8.764918 0.526853
1305031789.564472 0.191583 8.764918 0.526853
1305031789.567925 0.095791 8.776892 0.574749
1305031789.569069 0.095791 8.776892 0.574749
1305031789.572354 0.107765 8.585309 0.622644
1305031789.573333 0.107765 8.585309 0.622644
1305031789.576346 0.143687 8.681100 0.335270
1305031789.577332 0.143687 8.681100 0.335270
1305031789.580946 0.011974 8.585309 0.431062
1305031789.581938 0.011974 8.585309 0.431062
1305031789.583226 0.011974 8.585309 0.431062
1305031789.584347 0.011974 8.585309 0.431062
1305031789.587347 0.095791 8.585309 -0.047896
1305031789.588310 0.095791 8.585309 -0.047896
1305031789.591831 0.107765 8.776892 0.047896
1305031789.593084 0.107765 8.776892 0.047896
1305031789.594068 0.107765 8.776892 0.047896
1305031789.597347 0.107765 8.776892 -0.155661
1305031789.598318 0.107765 8.776892 -0.155661
1305031789.601931 -0.083818 8.968475 -0.431062
1305031789.602937 -0.083818 8.968475 -0.431062
1305031789.606356 0.059870 8.968475 -0.526853
1305031789.607347 0.059870 8.968475 -0.526853
1305031789.608855 0.059870 8.968475 -0.526853
1305031789.609939 0.059870 8.968475 -0.526853
1305031789.613232 0.011974 9.148084 -0.718436
1305031789.614208 0.011974 9.148084 -0.718436
1305031789.617432 -0.083818 9.112162 -0.526853
1305031789.618458 -0.083818 9.112162 -0.526853
1305031789.622085 0.083818 9.184006 -0.718436
1305031789.623065 0.083818 9.184006 -0.718436
1305031789.626311 0.059870 9.160058 -0.814227
1305031789.627315 0.059870 9.160058 -0.814227
1305031789.630946 -0.083818 9.184006 -0.886071
1305031789.631924 -0.083818 9.184006 -0.886071
1305031789.632973 -0.083818 9.184006 -0.886071
1305031789.636324 -0.191583 9.351641 -0.526853
1305031789.637425 -0.191583 9.351641 -0.526853
1305031789.640962 -0.083818 9.160058 -0.526853
1305031789.641929 -0.083818 9.160058 -0.526853
1305031789.643180 -0.083818 9.160058 -0.526853
1305031789.644307 -0.083818 9.160058 -0.526853
1305031789.647433 -0.239479 9.351641 -0.239479
1305031789.648432 -0.239479 9.351641 -0.239479
1305031789.652065 -0.083818 9.351641 -0.335270
1305031789.653070 -0.083818 9.351641 -0.335270
1305031789.656307 -0.275400 9.160058 -0.335270
1305031789.657343 -0.275400 9.160058 -0.335270
1305031789.658564 -0.275400 9.160058 -0.335270
1305031789.659585 -0.275400 9.160058 -0.335270
1305031789.663230 -0.083818 9.160058 -0.574749
1305031789.664213 -0.083818 9.160058 -0.574749
1305031789.667318 -0.275400 9.160058 -0.574749
1305031789.668438 -0.275400 9.160058 -0.574749
1305031789.671930 -0.323296 9.447432 -0.718436
1305031789.673099 -0.323296 9.447432 -0.718436
1305031789.676332 -0.287374 9.351641 -0.957915
1305031789.677305 -0.287374 9.351641 -0.957915
1305031789.678554 -0.287374 9.351641 -0.957915
1305031789.679994 -0.287374 9.351641 -0.957915
1305031789.683190 -0.287374 9.543224 -0.957915
1305031789.684204 -0.287374 9.543224 -0.957915
1305031789.687327 -0.275400 9.591119 -0.898045
1305031789.688426 -0.275400 9.591119 -0.898045
1305031789.691928 -0.275400 9.591119 -0.910019
1305031789.692956 -0.275400 9.591119 -0.910019
1305031789.696208 -0.191583 9.734806 -0.910019
1305031789.697345 -0.191583 9.734806 -0.910019
1305031789.698454 -0.191583 9.734806 -0.910019
1305031789.699451 -0.191583 9.734806 -0.910019
1305031789.703071 -0.275400 9.639015 -0.814227
1305031789.704221 -0.275400 9.639015 -0.814227
1305031789.707463 -0.191583 9.543224 -0.957915
1305031789.708470 -0.191583 9.543224 -0.957915
1305031789.712098 -0.191583 9.639015 -0.814227
1305031789.713096 -0.191583 9.639015 -0.814227
1305031789.716357 -0.083818 9.495328 -0.921993
1305031789.717344 -0.083818 9.495328 -0.921993
1305031789.720936 -0.191583 9.543224 -0.910019
1305031789.721930 -0.191583 9.543224 -0.910019
1305031789.723218 -0.191583 9.543224 -0.910019
1305031789.724202 -0.191583 9.543224 -0.910019
1305031789.727445 -0.083818 9.543224 -1.101602
1305031789.728489 -0.083818 9.543224 -1.101602
1305031789.732067 -0.191583 9.447432 -1.005810
1305031789.733096 -0.191583 9.447432 -1.005810
1305031789.736323 -0.083818 9.447432 -1.005810
1305031789.737319 -0.083818 9.447432 -1.005810
1305031789.740984 -0.191583 9.447432 -1.005810
1305031789.742068 -0.191583 9.447432 -1.005810
1305031789.743063 -0.191583 9.447432 -1.005810
1305031789.746348 -0.239479 9.495328 -1.101602
1305031789.747357 -0.239479 9.495328 -1.101602
1305031789.750903 -0.323296 9.543224 -1.245289
1305031789.751943 -0.323296 9.543224 -1.245289
1305031789.753098 -0.323296 9.543224 -1.245289
1305031789.756332 -0.275400 9.495328 -1.484768
1305031789.757474 -0.275400 9.495328 -1.484768
1305031789.760961 -0.275400 9.543224 -1.484768
1305031789.761942 -0.275400 9.543224 -1.484768
1305031789.763206 -0.275400 9.543224 -1.484768
1305031789.764357 -0.275400 9.543224 -1.484768
1305031789.767324 -0.323296 9.543224 -1.293185
1305031789.768440 -0.323296 9.543224 -1.293185
1305031789.771943 -0.478957 9.543224 -1.281211
1305031789.773098 -0.478957 9.543224 -1.281211
1305031789.776357 -0.275400 9.543224 -1.101602
1305031789.777353 -0.275400 9.543224 -1.101602
1305031789.778600 -0.275400 9.543224 -1.101602
1305031789.779995 -0.275400 9.543224 -1.101602
1305031789.783228 -0.323296 9.567171 -1.101602
1305031789.784206 -0.323296 9.567171 -1.101602
1305031789.787335 -0.191583 9.567171 -0.933967
1305031789.788436 -0.191583 9.567171 -0.933967
1305031789.791922 -0.191583 9.591119 -1.005810
1305031789.793073 -0.191583 9.591119 -1.005810
1305031789.796229 0.011974 9.734806 -1.197393
1305031789.797347 0.011974 9.734806 -1.197393
1305031789.798455 0.011974 9.734806 -1.197393
1305031789.799451 0.011974 9.734806 -1.197393
1305031789.803233 0.287374 9.543224 -1.664376
1305031789.804346 0.287374 9.543224 -1.664376
1305031789.807507 0.191583 9.639015 -1.688324
1305031789.808474 0.191583 9.639015 -1.688324
1305031789.812067 0.107765 9.543224 -1.867933
1305031789.813080 0.107765 9.543224 -1.867933
1305031789.816348 0.143687 9.531250 -1.963725
1305031789.817350 0.143687 9.531250 -1.963725
1305031789.820982 0.143687 9.255849 -2.059516
1305031789.821926 0.143687 9.255849 -2.059516
1305031789.823226 0.143687 9.255849 -2.059516
1305031789.824353 0.143687 9.255849 -2.059516
1305031789.827438 0.059870 9.255849 -1.867933
1305031789.828508 0.059870 9.255849 -1.867933
1305031789.832113 0.011974 9.112162 -1.688324
1305031789.833091 0.011974 9.112162 -1.688324
1305031789.836320 0.083818 9.064266 -1.580559
1305031789.837314 0.083818 9.064266 -1.580559
1305031789.840956 0.011974 8.968475 -1.676350
1305031789.841929 0.011974 8.968475 -1.676350
1305031789.843220 0.011974 8.968475 -1.676350
1305031789.844332 0.011974 8.968475 -1.676350
1305031789.847332 -0.083818 9.160058 -1.700298
1305031789.848473 -0.083818 9.160058 -1.700298
1305031789.851932 0.011974 9.136110 -1.724246
1305031789.853140 0.011974 9.136110 -1.724246
1305031789.856347 0.083818 9.064266 -1.963725
1305031789.857365 0.083818 9.064266 -1.963725
1305031789.860968 0.119739 8.968475 -2.059516
1305031789.861942 0.119739 8.968475 -2.059516
1305031789.863225 0.119739 8.968475 -2.059516
1305031789.864347 0.119739 8.968475 -2.059516
1305031789.867445 0.095791 9.064266 -2.394786
1305031789.868442 0.095791 9.064266 -2.394786
1305031789.872107 0.011974 9.160058 -2.442682
1305031789.873103 0.011974 9.160058 -2.442682
1305031789.876359 0.143687 9.160058 -2.538474
1305031789.877359 0.143687 9.160058 -2.538474
1305031789.880953 0.059870 9.160058 -2.634265
1305031789.881927 0.059870 9.160058 -2.634265
1305031789.883220 0.059870 9.160058 -2.634265
1305031789.884356 0.059870 9.160058 -2.634265
1305031789.887347 -0.263426 9.184006 -2.634265
1305031789.888514 -0.263426 9.184006 -2.634265
1305031789.892057 -0.083818 9.160058 -2.634265
1305031789.893068 -0.083818 9.160058 -2.634265
1305031789.896329 0.011974 9.351641 -2.490578
1305031789.897311 0.011974 9.351641 -2.490578
1305031789.900947 0.107765 9.495328 -2.442682
1305031789.901940 0.107765 9.495328 -2.442682
1305031789.903192 0.107765 9.495328 -2.442682
1305031789.904207 0.107765 9.495328 -2.442682
1305031789.907304 0.107765 9.255849 -2.442682
1305031789.908429 0.107765 9.255849 -2.442682
1305031789.912068 0.107765 9.447432 -2.538474
1305031789.913067 0.107765 9.447432 -2.538474
1305031789.916310 0.287374 9.351641 -2.730056
1305031789.917309 0.287374 9.351641 -2.730056
1305031789.920984 0.490931 9.172032 -2.825848
1305031789.921939 0.490931 9.172032 -2.825848
1305031789.923221 0.490931 9.172032 -2.825848
1305031789.924354 0.490931 9.172032 -2.825848
1305031789.927391 0.478957 9.184006 -2.921639
1305031789.928448 0.478957 9.184006 -2.921639
1305031789.932081 0.478957 9.160058 -3.113222
1305031789.933096 0.478957 9.160058 -3.113222
1305031789.936317 0.478957 9.148084 -3.209014
1305031789.937318 0.478957 9.148084 -3.209014
1305031789.940950 0.478957 9.136110 -3.232962
1305031789.941936 0.478957 9.136110 -3.232962
1305031789.943220 0.478957 9.136110 -3.232962
1305031789.944197 0.478957 9.136110 -3.232962
1305031789.947330 0.443035 8.968475 -3.304805
1305031789.948476 0.443035 8.968475 -3.304805
1305031789.952065 0.443035 8.800840 -3.400597
1305031789.953150 0.443035 8.800840 -3.400597
1305031789.956378 0.395140 8.824788 -3.400597
1305031789.957336 0.395140 8.824788 -3.400597
1305031789.958585 0.395140 8.824788 -3.400597
1305031789.959932 0.395140 8.824788 -3.400597
1305031789.963234 0.395140 8.776892 -3.544284
1305031789.964313 0.395140 8.776892 -3.544284
1305031789.967324 0.466983 8.489518 -3.496388
1305031789.968443 0.466983 8.489518 -3.496388
1305031789.971931 0.478957 8.393726 -3.544284
1305031789.973137 0.478957 8.393726 -3.544284
1305031789.976210 0.443035 8.202143 -3.592179
1305031789.977377 0.443035 8.202143 -3.592179
1305031789.978480 0.443035 8.202143 -3.592179
1305031789.979598 0.443035 8.202143 -3.592179
1305031789.983091 0.478957 8.106352 -3.544284
1305031789.984198 0.478957 8.106352 -3.544284
1305031789.987334 0.478957 8.034508 -3.304805
1305031789.988455 0.478957 8.034508 -3.304805
1305031789.992101 0.490931 8.202143 -3.304805
1305031789.993114 0.490931 8.202143 -3.304805
1305031789.996356 0.478957 8.058456 -3.209014
1305031789.997334 0.478957 8.058456 -3.209014
1305031790.000985 0.574749 8.202143 -3.592179
1305031790.001938 0.574749 8.202143 -3.592179
1305031790.003191 0.574749 8.202143 -3.592179
1305031790.004346 0.574749 8.202143 -3.592179
1305031790.007344 0.478957 8.393726 -3.687971
1305031790.008463 0.478957 8.393726 -3.687971
1305031790.012103 0.682514 8.489518 -3.783762
1305031790.013134 0.682514 8.489518 -3.783762
1305031790.016353 0.574749 8.585309 -3.987319
1305031790.017327 0.574749 8.585309 -3.987319
1305031790.020975 0.682514 8.489518 -4.358511
1305031790.021927 0.682514 8.489518 -4.358511
1305031790.023207 0.682514 8.489518 -4.358511
1305031790.024355 0.682514 8.489518 -4.358511
1305031790.027347 0.682514 8.681100 -4.454303
1305031790.028505 0.682514 8.681100 -4.454303
1305031790.031955 0.862123 8.681100 -4.454303
1305031790.032957 0.862123 8.681100 -4.454303
1305031790.036317 0.826201 8.441622 -4.550094
1305031790.037316 0.826201 8.441622 -4.550094
1305031790.038442 0.826201 8.441622 -4.550094
1305031790.039566 0.826201 8.441622 -4.550094
1305031790.043079 0.862123 8.202143 -4.370485
1305031790.044232 0.862123 8.202143 -4.370485
1305031790.047329 0.682514 8.202143 -4.358511
1305031790.048474 0.682514 8.202143 -4.358511
1305031790.052065 0.682514 8.202143 -3.975345
1305031790.053076 0.682514 8.202143 -3.975345
1305031790.056333 0.682514 8.010560 -3.987319
1305031790.057343 0.682514 8.010560 -3.987319
1305031790.060969 0.778306 8.010560 -4.166928
1305031790.062069 0.778306 8.010560 -4.166928
1305031790.063203 0.778306 8.010560 -4.166928
1305031790.064347 0.778306 8.010560 -4.166928
1305031790.067318 0.862123 7.723186 -3.975345
1305031790.068440 0.862123 7.723186 -3.975345
1305031790.072122 0.682514 7.627394 -4.023241
1305031790.073109 0.682514 7.627394 -4.023241
1305031790.076350 0.862123 7.627394 -4.262720
1305031790.077370 0.862123 7.627394 -4.262720
1305031790.080986 0.826201 7.914769 -3.975345
1305031790.082085 0.826201 7.914769 -3.975345
1305031790.083216 0.826201 7.914769 -3.975345
1305031790.084331 0.826201 7.914769 -3.975345
1305031790.087487 0.574749 7.962665 -4.358511
1305031790.088642 0.574749 7.962665 -4.358511
1305031790.092061 0.682514 7.986612 -4.358511
1305031790.093064 0.682514 7.986612 -4.358511
1305031790.096359 0.478957 8.034508 -4.358511
1305031790.097334 0.478957 8.034508 -4.358511
1305031790.100947 0.682514 8.058456 -4.693781
1305031790.101940 0.682514 8.058456 -4.693781
1305031790.103193 0.682514 8.058456 -4.693781
1305031790.104195 0.682514 8.058456 -4.693781
1305031790.107496 0.574749 8.297935 -4.645885
1305031790.108430 0.574749 8.297935 -4.645885
1305031790.112107 0.490931 8.369778 -4.741677
1305031790.113085 0.490931 8.369778 -4.741677
1305031790.116348 0.682514 8.393726 -5.100895
1305031790.117508 0.682514 8.393726 -5.100895
1305031790.121129 0.478957 8.393726 -4.837468
1305031790.122077 0.478957 8.393726 -4.837468
1305031790.123345 0.478957 8.393726 -4.837468
1305031790.124346 0.478957 8.393726 -4.837468
1305031790.127478 0.682514 8.369778 -5.029051
1305031790.128514 0.682514 8.369778 -5.029051
1305031790.132097 0.574749 8.202143 -5.029051
1305031790.133098 0.574749 8.202143 -5.029051
1305031790.136322 0.682514 8.022534 -5.124843
1305031790.137470 0.682514 8.022534 -5.124843
1305031790.140962 0.682514 7.962665 -5.316426
1305031790.141936 0.682514 7.962665 -5.316426
1305031790.143208 0.682514 7.962665 -5.316426
1305031790.144200 0.682514 7.962665 -5.316426
1305031790.147336 0.682514 7.627394 -5.172738
1305031790.148458 0.682514 7.627394 -5.172738
1305031790.152099 0.682514 7.435812 -5.316426
1305031790.153075 0.682514 7.435812 -5.316426
1305031790.156330 0.682514 7.435812 -4.933260
1305031790.157359 0.682514 7.435812 -4.933260
1305031790.160950 0.778306 7.244229 -4.837468
1305031790.161930 0.778306 7.244229 -4.837468
1305031790.163222 0.778306 7.244229 -4.837468
1305031790.164346 0.778306 7.244229 -4.837468
1305031790.167319 0.682514 7.244229 -4.753651
1305031790.168443 0.682514 7.244229 -4.753651
1305031790.172102 0.826201 7.244229 -4.933260
1305031790.173226 0.826201 7.244229 -4.933260
1305031790.176352 0.862123 7.244229 -5.124843
1305031790.177382 0.862123 7.244229 -5.124843
1305031790.180987 0.850149 7.340020 -5.029051
1305031790.181938 0.850149 7.340020 -5.029051
1305031790.183233 0.850149 7.340020 -5.029051
1305031790.184348 0.850149 7.340020 -5.029051
1305031790.187508 0.862123 7.435812 -5.220634
1305031790.188513 0.862123 7.435812 -5.220634
1305031790.192103 0.682514 7.579499 -5.124843
1305031790.193061 0.682514 7.579499 -5.124843
1305031790.196380 0.526853 7.579499 -5.412217
1305031790.197321 0.526853 7.579499 -5.412217
1305031790.200980 0.478957 7.723186 -5.316426
1305031790.201933 0.478957 7.723186 -5.316426
1305031790.203190 0.478957 7.723186 -5.316426
1305031790.204316 0.478957 7.723186 -5.316426
1305031790.207331 0.574749 7.962665 -5.508009
1305031790.208473 0.574749 7.962665 -5.508009
1305031790.211945 0.478957 8.010560 -5.519982
1305031790.212971 0.478957 8.010560 -5.519982
1305031790.216244 0.574749 8.010560 -5.699591
1305031790.217387 0.574749 8.010560 -5.699591
1305031790.218604 0.574749 8.010560 -5.699591
1305031790.219602 0.574749 8.010560 -5.699591
1305031790.223224 0.443035 8.202143 -5.508009
1305031790.224206 0.443035 8.202143 -5.508009
1305031790.227473 0.478957 8.106352 -5.508009
1305031790.228503 0.478957 8.106352 -5.508009
1305031790.232144 0.502905 8.058456 -5.603800
1305031790.233081 0.502905 8.058456 -5.603800
1305031790.236319 0.478957 8.106352 -5.843279
1305031790.237319 0.478957 8.106352 -5.843279
1305031790.240988 0.682514 8.058456 -5.891174
1305031790.241934 0.682514 8.058456 -5.891174
1305031790.243221 0.682514 8.058456 -5.891174
1305031790.244316 0.682514 8.058456 -5.891174
1305031790.247333 0.778306 7.986612 -5.843279
1305031790.248475 0.778306 7.986612 -5.843279
1305031790.252110 0.826201 8.010560 -5.891174
1305031790.253083 0.826201 8.010560 -5.891174
1305031790.256371 0.886071 7.627394 -5.891174
1305031790.257331 0.886071 7.627394 -5.891174
1305031790.260957 0.862123 7.579499 -5.986966
1305031790.261928 0.862123 7.579499 -5.986966
1305031790.263195 0.862123 7.579499 -5.986966
1305031790.264317 0.862123 7.579499 -5.986966
1305031790.267300 0.874097 7.435812 -5.939070
1305031790.268419 0.874097 7.435812 -5.939070
1305031790.272109 1.053706 7.244229 -6.082757
1305031790.273098 1.053706 7.244229 -6.082757
1305031790.276332 1.053706 7.244229 -6.274340
1305031790.277331 1.053706 7.244229 -6.274340
1305031790.280951 1.245289 7.052646 -6.274340
1305031790.282069 1.245289 7.052646 -6.274340
1305031790.283224 1.245289 7.052646 -6.274340
1305031790.284347 1.245289 7.052646 -6.274340
1305031790.287361 1.209367 6.861063 -6.274340
1305031790.288446 1.209367 6.861063 -6.274340
1305031790.292082 1.257263 6.669480 -6.657506
1305031790.293088 1.257263 6.669480 -6.657506
1305031790.296360 1.257263 6.477897 -6.657506
1305031790.297471 1.257263 6.477897 -6.657506
1305031790.300983 1.233315 6.477897 -6.609610
1305031790.301935 1.233315 6.477897 -6.609610
1305031790.303193 1.233315 6.477897 -6.609610
1305031790.304192 1.233315 6.477897 -6.609610
1305031790.307471 1.161471 6.430001 -6.645532
1305031790.308477 1.161471 6.430001 -6.645532
1305031790.311929 1.053706 6.382106 -6.657506
1305031790.313084 1.053706 6.382106 -6.657506
1305031790.316370 0.910019 6.477897 -6.465923
1305031790.317347 0.910019 6.477897 -6.465923
1305031790.318459 0.910019 6.477897 -6.465923
1305031790.319597 0.910019 6.477897 -6.465923
1305031790.323216 0.957915 6.489871 -6.849089
1305031790.324232 0.957915 6.489871 -6.849089
1305031790.327479 0.957915 6.861063 -6.944880
1305031790.328476 0.957915 6.861063 -6.944880
1305031790.332099 0.957915 7.148437 -6.849089
1305031790.333080 0.957915 7.148437 -6.849089
1305031790.336322 0.957915 7.340020 -6.849089
1305031790.337316 0.957915 7.340020 -6.849089
1305031790.340948 1.161471 7.627394 -6.944880
1305031790.341931 1.161471 7.627394 -6.944880
1305031790.343199 1.161471 7.627394 -6.944880
1305031790.344316 1.161471 7.627394 -6.944880
1305031790.347473 1.053706 8.010560 -6.849089
1305031790.348494 1.053706 8.010560 -6.849089
1305031790.352109 1.209367 8.010560 -7.088568
1305031790.353085 1.209367 8.010560 -7.088568
1305031790.356371 1.053706 8.345830 -6.992776
1305031790.357318 1.053706 8.345830 -6.992776
1305031790.360955 1.053706 8.202143 -7.040672
1305031790.362092 1.053706 8.202143 -7.040672
1305031790.363343 1.053706 8.202143 -7.040672
1305031790.364307 1.053706 8.202143 -7.040672
1305031790.367306 1.245289 8.106352 -7.088568
1305031790.368431 1.245289 8.106352 -7.088568
1305031790.372067 1.257263 8.010560 -7.064620
1305031790.373097 1.257263 8.010560 -7.064620
1305031790.376333 1.257263 7.818977 -7.028698
1305031790.377378 1.257263 7.818977 -7.028698
1305031790.378864 1.257263 7.818977 -7.028698
1305031790.379944 1.257263 7.818977 -7.028698
1305031790.383210 1.257263 7.723186 -6.944880
1305031790.384183 1.257263 7.723186 -6.944880
1305031790.387339 1.257263 7.435812 -6.705402
1305031790.388431 1.257263 7.435812 -6.705402
1305031790.391921 1.341080 7.435812 -6.944880
1305031790.393059 1.341080 7.435812 -6.944880
1305031790.396333 1.448846 7.340020 -6.657506
1305031790.397307 1.448846 7.340020 -6.657506
1305031790.398561 1.448846 7.340020 -6.657506
1305031790.399574 1.448846 7.340020 -6.657506
1305031790.403244 1.341080 7.340020 -6.849089
1305031790.404190 1.341080 7.340020 -6.849089
1305031790.407321 1.448846 7.244229 -7.016724
1305031790.408446 1.448846 7.244229 -7.016724
1305031790.412097 1.544637 7.232255 -7.040672
1305031790.413085 1.544637 7.232255 -7.040672
1305031790.416332 1.341080 7.244229 -7.088568
1305031790.417332 1.341080 7.244229 -7.088568
1305031790.420949 1.448846 7.148437 -7.232255
1305031790.421930 1.448846 7.148437 -7.232255
1305031790.423231 1.448846 7.148437 -7.232255
1305031790.424348 1.448846 7.148437 -7.232255
1305031790.427454 1.245289 7.244229 -7.040672
1305031790.428605 1.245289 7.244229 -7.040672
1305031790.432065 1.257263 7.435812 -6.992776
1305031790.433092 1.257263 7.435812 -6.992776
1305031790.436372 1.269237 7.340020 -7.040672
1305031790.437344 1.269237 7.340020 -7.040672
1305031790.440945 1.293185 7.340020 -7.232255
1305031790.442062 1.293185 7.340020 -7.232255
1305031790.443209 1.293185 7.340020 -7.232255
1305031790.444331 1.293185 7.340020 -7.232255
1305031790.447361 1.448846 7.435812 -7.423838
1305031790.448457 1.448846 7.435812 -7.423838
1305031790.452083 1.544637 7.435812 -7.232255
1305031790.453082 1.544637 7.435812 -7.232255
1305031790.456335 1.544637 7.435812 -7.375942
1305031790.457507 1.544637 7.435812 -7.375942
1305031790.460938 1.448846 7.435812 -7.423838
1305031790.461932 1.448846 7.435812 -7.423838
1305031790.463234 1.448846 7.435812 -7.423838
1305031790.464304 1.448846 7.435812 -7.423838
1305031790.467446 1.724246 7.244229 -7.615421
1305031790.468424 1.724246 7.244229 -7.615421
1305031790.472074 1.640429 7.232255 -7.423838
1305031790.473084 1.640429 7.232255 -7.423838
1305031790.476473 1.640429 7.148437 -7.399890
1305031790.477374 1.640429 7.148437 -7.399890
1305031790.480944 1.640429 7.196333 -7.399890
1305031790.481930 1.640429 7.196333 -7.399890
1305031790.483223 1.640429 7.196333 -7.399890
1305031790.484339 1.640429 7.196333 -7.399890
1305031790.487337 1.676350 6.956854 -7.232255
1305031790.488493 1.676350 6.956854 -7.232255
1305031790.492050 1.676350 6.908959 -7.232255
1305031790.493084 1.676350 6.908959 -7.232255
1305031790.496210 1.724246 6.861063 -7.136463
1305031790.497208 1.724246 6.861063 -7.136463
1305031790.498435 1.724246 6.861063 -7.136463
1305031790.499601 1.724246 6.861063 -7.136463
1305031790.503210 1.724246 6.525793 -7.328046
1305031790.504192 1.724246 6.525793 -7.328046
1305031790.507431 1.676350 6.573688 -7.232255
1305031790.508437 1.676350 6.573688 -7.232255
1305031790.512102 1.724246 6.286314 -7.232255
1305031790.513108 1.724246 6.286314 -7.232255
1305031790.516350 1.820038 6.106705 -7.088568
1305031790.517310 1.820038 6.106705 -7.088568
1305031790.520937 1.927803 6.070783 -7.040672
1305031790.521932 1.927803 6.070783 -7.040672
1305031790.523194 1.927803 6.070783 -7.040672
1305031790.524191 1.927803 6.070783 -7.040672
1305031790.527330 1.640429 6.046835 -7.040672
1305031790.528438 1.640429 6.046835 -7.040672
1305031790.532068 1.640429 5.903148 -7.040672
1305031790.533857 1.640429 5.903148 -7.040672
1305031790.536363 1.724246 5.903148 -7.411864
1305031790.537311 1.724246 5.903148 -7.411864
1305031790.538939 1.724246 5.903148 -7.411864
1305031790.542087 1.592533 6.094731 -7.423838
1305031790.543064 1.592533 6.094731 -7.423838
1305031790.546324 1.640429 6.094731 -7.615421
1305031790.547295 1.640429 6.094731 -7.615421
1305031790.550961 1.640429 6.190523 -7.447785
1305031790.552049 1.640429 6.190523 -7.447785
1305031790.553219 1.640429 6.190523 -7.447785
1305031790.554319 1.640429 6.190523 -7.447785
1305031790.557487 1.448846 6.477897 -7.423838
1305031790.558470 1.448846 6.477897 -7.423838
1305031790.562079 1.341080 6.669480 -7.232255
1305031790.563083 1.341080 6.669480 -7.232255
1305031790.566323 1.448846 6.861063 -7.375942
1305031790.567322 1.448846 6.861063 -7.375942
1305031790.570932 1.448846 6.956854 -7.232255
1305031790.571928 1.448846 6.956854 -7.232255
1305031790.572933 1.448846 6.956854 -7.232255
1305031790.576325 1.628455 7.052646 -7.328046
1305031790.577326 1.628455 7.052646 -7.328046
1305031790.580973 1.592533 6.956854 -7.232255
1305031790.581941 1.592533 6.956854 -7.232255
1305031790.583191 1.592533 6.956854 -7.232255
1305031790.584189 1.592533 6.956854 -7.232255
1305031790.587314 1.628455 6.908959 -7.040672
1305031790.588437 1.628455 6.908959 -7.040672
1305031790.592084 1.448846 6.861063 -7.136463
1305031790.593078 1.448846 6.861063 -7.136463
1305031790.596348 1.341080 6.956854 -7.040672
1305031790.597461 1.341080 6.956854 -7.040672
1305031790.600937 1.544637 6.861063 -7.040672
1305031790.601944 1.544637 6.861063 -7.040672
1305031790.603194 1.544637 6.861063 -7.040672
1305031790.604316 1.544637 6.861063 -7.040672
1305031790.607452 1.640429 6.669480 -7.423838
1305031790.608441 1.640429 6.669480 -7.423838
1305031790.612071 1.544637 6.669480 -7.232255
1305031790.613093 1.544637 6.669480 -7.232255
1305031790.616315 1.640429 6.477897 -7.519629
1305031790.617430 1.640429 6.477897 -7.519629
1305031790.621096 1.616481 6.382106 -7.783056
1305031790.622094 1.616481 6.382106 -7.783056
1305031790.623308 1.616481 6.382106 -7.783056
1305031790.624299 1.616481 6.382106 -7.783056
1305031790.627456 1.616481 6.286314 -7.711212
1305031790.628383 1.616481 6.286314 -7.711212
1305031790.632079 1.592533 6.190523 -7.807003
1305031790.633100 1.592533 6.190523 -7.807003
1305031790.636328 1.592533 6.094731 -7.807003
1305031790.637321 1.592533 6.094731 -7.807003
1305031790.638920 1.592533 6.094731 -7.807003
1305031790.642066 1.448846 6.106705 -7.807003
1305031790.643062 1.448846 6.106705 -7.807003
1305031790.646323 1.448846 6.142627 -7.807003
1305031790.647321 1.448846 6.142627 -7.807003
1305031790.650942 1.448846 6.286314 -7.854899
1305031790.652066 1.448846 6.286314 -7.854899
1305031790.653196 1.448846 6.286314 -7.854899
1305031790.654361 1.448846 6.286314 -7.854899
1305031790.657466 1.341080 6.286314 -7.998586
1305031790.658450 1.341080 6.286314 -7.998586
1305031790.662078 1.269237 6.286314 -8.190169
1305031790.663080 1.269237 6.286314 -8.190169
1305031790.666312 1.448846 6.190523 -8.214117
1305031790.667314 1.448846 6.190523 -8.214117
1305031790.670933 1.293185 6.382106 -8.190169
1305031790.671925 1.293185 6.382106 -8.190169
1305031790.672941 1.293185 6.382106 -8.190169
1305031790.676322 1.209367 6.477897 -7.998586
1305031790.677350 1.209367 6.477897 -7.998586
1305031790.680950 1.257263 6.573688 -8.190169
1305031790.681952 1.257263 6.573688 -8.190169
1305031790.683178 1.257263 6.573688 -8.190169
1305031790.684300 1.257263 6.573688 -8.190169
1305031790.687443 1.257263 6.669480 -7.902795
1305031790.688434 1.257263 6.669480 -7.902795
1305031790.692068 1.448846 6.813167 -7.807003
1305031790.693080 1.448846 6.813167 -7.807003
1305031790.696335 1.293185 6.861063 -7.830951
1305031790.697332 1.293185 6.861063 -7.830951
1305031790.700941 1.257263 6.861063 -7.615421
1305031790.701966 1.257263 6.861063 -7.615421
1305031790.703191 1.257263 6.861063 -7.615421
1305031790.704310 1.257263 6.861063 -7.615421
1305031790.707471 1.448846 6.813167 -7.615421
1305031790.708437 1.448846 6.813167 -7.615421
1305031790.712073 1.293185 6.669480 -7.615421
1305031790.713058 1.293185 6.669480 -7.615421
1305031790.716329 1.616481 6.765271 -7.807003
1305031790.717319 1.616481 6.765271 -7.807003
1305031790.720951 1.640429 6.669480 -7.854899
1305031790.722017 1.640429 6.669480 -7.854899
1305031790.723224 1.640429 6.669480 -7.854899
1305031790.724350 1.640429 6.669480 -7.854899
1305031790.727443 1.544637 6.477897 -7.807003
1305031790.728436 1.544637 6.477897 -7.807003
1305031790.732079 1.448846 6.477897 -7.711212
1305031790.733062 1.448846 6.477897 -7.711212
1305031790.736313 1.616481 6.190523 -7.830951
1305031790.737438 1.616481 6.190523 -7.830951
1305031790.741067 1.616481 6.094731 -7.998586
1305031790.742065 1.616481 6.094731 -7.998586
1305031790.743187 1.616481 6.094731 -7.998586
1305031790.744313 1.616481 6.094731 -7.998586
1305031790.747324 1.448846 6.142627 -7.998586
1305031790.748448 1.448846 6.142627 -7.998586
1305031790.752073 1.448846 6.094731 -7.998586
1305031790.753052 1.448846 6.094731 -7.998586
1305031790.756419 1.448846 6.286314 -7.818977
1305031790.757327 1.448846 6.286314 -7.818977
1305031790.760985 1.592533 6.142627 -7.807003
1305031790.762061 1.592533 6.142627 -7.807003
1305031790.763348 1.592533 6.142627 -7.807003
1305031790.764348 1.592533 6.142627 -7.807003
1305031790.767345 1.640429 6.190523 -7.807003
1305031790.768433 1.640429 6.190523 -7.807003
1305031790.772050 1.640429 6.094731 -7.998586
1305031790.773056 1.640429 6.094731 -7.998586
1305031790.776313 1.640429 6.094731 -7.998586
1305031790.777340 1.640429 6.094731 -7.998586
1305031790.780972 1.640429 6.094731 -8.285961
1305031790.781968 1.640429 6.094731 -8.285961
1305031790.783180 1.640429 6.094731 -8.285961
1305031790.784189 1.640429 6.094731 -8.285961
1305031790.787331 1.640429 6.094731 -8.238065
1305031790.788441 1.640429 6.094731 -8.238065
1305031790.792109 1.640429 5.903148 -8.549387
1305031790.793062 1.640429 5.903148 -8.549387
1305031790.796314 1.676350 5.807357 -8.285961
1305031790.797352 1.676350 5.807357 -8.285961
1305031790.798814 1.676350 5.807357 -8.285961
1305031790.799987 1.676350 5.807357 -8.285961
1305031790.803189 1.820038 5.807357 -8.561361
1305031790.804177 1.820038 5.807357 -8.561361
1305031790.807302 1.724246 5.711565 -8.381752
1305031790.808429 1.724246 5.711565 -8.381752
1305031790.811926 1.820038 5.711565 -8.238065
1305031790.813058 1.820038 5.711565 -8.238065
1305031790.816513 1.724246 5.699591 -7.902795
1305031790.817427 1.724246 5.699591 -7.902795
1305031790.818436 1.724246 5.699591 -7.902795
1305031790.822101 1.820038 5.615774 -7.998586
1305031790.823075 1.820038 5.615774 -7.998586
1305031790.826203 1.820038 5.699591 -7.998586
1305031790.827308 1.820038 5.699591 -7.998586
1305031790.828980 1.820038 5.699591 -7.998586
1305031790.831433 1.820038 5.519982 -8.238065
1305031790.832589 1.820038 5.519982 -8.238065
1305031790.836091 1.927803 5.519982 -8.202143
1305031790.837121 1.927803 5.519982 -8.202143
1305031790.838370 1.927803 5.519982 -8.202143
1305031790.839307 1.927803 5.519982 -8.202143
1305031790.842947 2.107412 5.352347 -8.669126
1305031790.844067 2.107412 5.352347 -8.669126
1305031790.847203 2.107412 5.615774 -8.932553
1305031790.848353 2.107412 5.615774 -8.932553
1305031790.851474 2.215177 5.615774 -9.004397
1305031790.852948 2.215177 5.615774 -9.004397
1305031790.856244 2.215177 5.687618 -9.148084
1305031790.857184 2.215177 5.687618 -9.148084
1305031790.858433 2.215177 5.687618 -9.148084
1305031790.859435 2.215177 5.687618 -9.148084
1305031790.863101 2.107412 5.519982 -9.052292
1305031790.864225 2.107412 5.519982 -9.052292
1305031790.867351 2.059516 5.424191 -9.148084
1305031790.868310 2.059516 5.424191 -9.148084
1305031790.871941 2.059516 5.424191 -8.908605
1305031790.872937 2.059516 5.424191 -8.908605
1305031790.876195 2.215177 5.519982 -9.148084
1305031790.877185 2.215177 5.519982 -9.148084
1305031790.878511 2.215177 5.519982 -9.148084
1305031790.879461 2.215177 5.519982 -9.148084
1305031790.883125 2.382812 5.304452 -9.052292
1305031790.884217 2.382812 5.304452 -9.052292
1305031790.887327 2.215177 5.328400 -8.956501
1305031790.888467 2.215177 5.328400 -8.956501
1305031790.892111 2.310969 5.328400 -8.956501
1305031790.893064 2.310969 5.328400 -8.956501
1305031790.896333 2.406760 5.328400 -9.004397
1305031790.897338 2.406760 5.328400 -9.004397
1305031790.898857 2.406760 5.328400 -9.004397
1305031790.899934 2.406760 5.328400 -9.004397
1305031790.903188 2.406760 5.328400 -9.148084
1305031790.904178 2.406760 5.328400 -9.148084
1305031790.907341 2.406760 5.328400 -9.148084
1305031790.908431 2.406760 5.328400 -9.148084
1305031790.911929 2.382812 5.519982 -9.243875
1305031790.913050 2.382812 5.519982 -9.243875
1305031790.916192 2.406760 5.352347 -9.435458
1305031790.917670 2.406760 5.352347 -9.435458
1305031790.918930 2.406760 5.352347 -9.435458
1305031790.922083 2.358865 5.711565 -9.627041
1305031790.923064 2.358865 5.711565 -9.627041
1305031790.926330 2.406760 5.807357 -9.818624
1305031790.927315 2.406760 5.807357 -9.818624
1305031790.930968 2.310969 5.903148 -9.531250
1305031790.931961 2.310969 5.903148 -9.531250
1305031790.933228 2.310969 5.903148 -9.531250
1305031790.934200 2.310969 5.903148 -9.531250
1305031790.937433 2.215177 5.711565 -9.722832
1305031790.938464 2.215177 5.711565 -9.722832
1305031790.942060 2.310969 5.711565 -9.914415
1305031790.943050 2.310969 5.711565 -9.914415
1305031790.946317 2.394786 5.711565 -9.722832
1305031790.947299 2.394786 5.711565 -9.722832
1305031790.950589 2.406760 5.663670 -10.010207
1305031790.951936 2.406760 5.663670 -10.010207
1305031790.953216 2.406760 5.663670 -10.010207
1305031790.954198 2.406760 5.663670 -10.010207
1305031790.957321 2.406760 5.519982 -9.914415
1305031790.958444 2.406760 5.519982 -9.914415
1305031790.961958 2.586369 5.328400 -10.082050
1305031790.962953 2.586369 5.328400 -10.082050
1305031790.966088 2.586369 5.424191 -10.117972
1305031790.967221 2.586369 5.424191 -10.117972
1305031790.968439 2.586369 5.424191 -10.117972
1305031790.969442 2.586369 5.424191 -10.117972
1305031790.972945 2.490578 5.424191 -10.201790
1305031790.973954 2.490578 5.424191 -10.201790
1305031790.977179 2.586369 5.519982 -10.201790
1305031790.978140 2.586369 5.519982 -10.201790
1305031790.981217 2.586369 5.424191 -10.297581
1305031790.982380 2.586369 5.424191 -10.297581
1305031790.983447 2.586369 5.424191 -10.297581
1305031790.984821 2.586369 5.424191 -10.297581
1305031790.988317 2.406760 5.711565 -9.914415
1305031790.989323 2.406760 5.711565 -9.914415
1305031790.992319 2.490578 5.711565 -9.914415
1305031790.993433 2.490578 5.711565 -9.914415
1305031790.997135 2.406760 5.759461 -9.435458
1305031790.998062 2.406760 5.759461 -9.435458
1305031791.001211 2.442682 5.711565 -9.387562
1305031791.002199 2.442682 5.711565 -9.387562
1305031791.003435 2.442682 5.711565 -9.387562
1305031791.004559 2.442682 5.711565 -9.387562
1305031791.008057 2.406760 5.711565 -9.148084
1305031791.009056 2.406760 5.711565 -9.148084
1305031791.012325 2.406760 5.519982 -8.908605
1305031791.013445 2.406760 5.519982 -8.908605
1305031791.016941 2.310969 5.519982 -8.477544
1305031791.017942 2.310969 5.519982 -8.477544
1305031791.021219 2.406760 5.328400 -8.525439
1305031791.022215 2.406760 5.328400 -8.525439
1305031791.023452 2.406760 5.328400 -8.525439
1305031791.024565 2.406760 5.328400 -8.525439
1305031791.028078 2.586369 5.424191 -8.585309
1305031791.029072 2.586369 5.424191 -8.585309
1305031791.032442 2.789926 5.352347 -8.956501
1305031791.033440 2.789926 5.352347 -8.956501
1305031791.037093 2.873744 5.328400 -9.004397
1305031791.038060 2.873744 5.328400 -9.004397
1305031791.041324 3.125196 5.232608 -9.243875
1305031791.042321 3.125196 5.232608 -9.243875
1305031791.045951 3.077300 5.136817 -9.435458
1305031791.046931 3.077300 5.136817 -9.435458
1305031791.047958 3.077300 5.136817 -9.435458
1305031791.051191 3.149144 4.945234 -9.435458
1305031791.052350 3.149144 4.945234 -9.435458
1305031791.053563 3.149144 4.945234 -9.435458
1305031791.054933 3.149144 4.945234 -9.435458
1305031791.058091 3.161118 4.849442 -9.698885
1305031791.059061 3.161118 4.849442 -9.698885
1305031791.062348 2.981509 4.945234 -9.435458
1305031791.063352 2.981509 4.945234 -9.435458
1305031791.066428 2.981509 4.945234 -9.531250
1305031791.067460 2.981509 4.945234 -9.531250
1305031791.071058 2.981509 4.945234 -9.531250
1305031791.072054 2.981509 4.945234 -9.531250
1305031791.073318 2.981509 4.945234 -9.531250
1305031791.074305 2.981509 4.945234 -9.531250
1305031791.077330 2.789926 5.316426 -9.315719
1305031791.078323 2.789926 5.316426 -9.315719
1305031791.082130 2.789926 5.519982 -9.004397
1305031791.083094 2.789926 5.519982 -9.004397
1305031791.086366 2.586369 5.663670 -9.148084
1305031791.087430 2.586369 5.663670 -9.148084
1305031791.088431 2.586369 5.663670 -9.148084
1305031791.092073 2.694135 5.663670 -8.669126
1305031791.093080 2.694135 5.663670 -8.669126
1305031791.096319 2.442682 5.711565 -8.597283
1305031791.097332 2.442682 5.711565 -8.597283
1305031791.098871 2.442682 5.711565 -8.597283
1305031791.099942 2.442682 5.711565 -8.597283
1305031791.103312 2.406760 5.711565 -7.807003
1305031791.104305 2.406760 5.711565 -7.807003
1305031791.107311 2.382812 5.903148 -7.711212
1305031791.108431 2.382812 5.903148 -7.711212
1305031791.112082 2.310969 5.903148 -7.232255
1305031791.113074 2.310969 5.903148 -7.232255
1305031791.116384 2.215177 6.046835 -6.944880
1305031791.117331 2.215177 6.046835 -6.944880
1305031791.121026 2.310969 6.094731 -7.040672
1305031791.121954 2.310969 6.094731 -7.040672
1305031791.123224 2.310969 6.094731 -7.040672
1305031791.124191 2.310969 6.094731 -7.040672
1305031791.127438 2.059516 5.998940 -7.375942
1305031791.128434 2.059516 5.998940 -7.375942
1305031791.132147 2.011621 5.998940 -7.423838
1305031791.133070 2.011621 5.998940 -7.423838
1305031791.136317 2.011621 6.094731 -7.711212
1305031791.137345 2.011621 6.094731 -7.711212
1305031791.140938 2.215177 6.094731 -8.190169
1305031791.142076 2.215177 6.094731 -8.190169
1305031791.143175 2.215177 6.094731 -8.190169
1305031791.144301 2.215177 6.094731 -8.190169
1305031791.147456 2.215177 6.142627 -8.477544
1305031791.148433 2.215177 6.142627 -8.477544
1305031791.152069 2.215177 6.190523 -8.573335
1305031791.153054 2.215177 6.190523 -8.573335
1305031791.156339 2.215177 6.190523 -8.381752
1305031791.157307 2.215177 6.190523 -8.381752
1305031791.160962 2.358865 6.094731 -8.381752
1305031791.161943 2.358865 6.094731 -8.381752
1305031791.163234 2.358865 6.094731 -8.381752
1305031791.164207 2.358865 6.094731 -8.381752
1305031791.167432 2.215177 6.453949 -8.094378
1305031791.168585 2.215177 6.453949 -8.094378
1305031791.172051 2.358865 6.382106 -7.998586
1305031791.173078 2.358865 6.382106 -7.998586
1305031791.176451 2.011621 6.669480 -7.759108
1305031791.177452 2.011621 6.669480 -7.759108
1305031791.180978 2.011621 6.669480 -7.807003
1305031791.182072 2.011621 6.669480 -7.807003
1305031791.183213 2.011621 6.669480 -7.807003
1305031791.184302 2.011621 6.669480 -7.807003
1305031791.187476 2.011621 7.196333 -7.375942
1305031791.188941 2.011621 7.196333 -7.375942
1305031791.192361 2.011621 7.244229 -7.040672
1305031791.193336 2.011621 7.244229 -7.040672
1305031791.194385 2.011621 7.244229 -7.040672
1305031791.197460 1.640429 7.435812 -6.465923
1305031791.198466 1.640429 7.435812 -6.465923
1305031791.202063 1.676350 7.435812 -6.286314
1305031791.203184 1.676350 7.435812 -6.286314
1305031791.206309 1.640429 7.435812 -6.178549
1305031791.207338 1.640429 7.435812 -6.178549
1305031791.210937 1.448846 7.627394 -5.891174
1305031791.211933 1.448846 7.627394 -5.891174
1305031791.213181 1.448846 7.627394 -5.891174
1305031791.214204 1.448846 7.627394 -5.891174
1305031791.217446 1.544637 7.627394 -5.939070
1305031791.218447 1.544637 7.627394 -5.939070
1305031791.222086 1.293185 7.615421 -5.986966
1305031791.223048 1.293185 7.615421 -5.986966
1305031791.226326 1.448846 7.603447 -5.915122
1305031791.227302 1.448846 7.603447 -5.915122
1305031791.230954 1.544637 7.435812 -6.082757
1305031791.231931 1.544637 7.435812 -6.082757
1305031791.233230 1.544637 7.435812 -6.082757
1305031791.234188 1.544637 7.435812 -6.082757
1305031791.237437 1.640429 7.244229 -6.465923
1305031791.238558 1.640429 7.244229 -6.465923
1305031791.242201 1.820038 7.244229 -6.849089
1305031791.243192 1.820038 7.244229 -6.849089
1305031791.246334 1.927803 7.244229 -6.944880
1305031791.248387 1.927803 7.244229 -6.944880
1305031791.251021 2.011621 7.340020 -7.028698
1305031791.251930 2.011621 7.340020 -7.028698
1305031791.253180 2.011621 7.340020 -7.028698
1305031791.254209 2.011621 7.340020 -7.028698
1305031791.257464 1.820038 7.435812 -6.944880
1305031791.258439 1.820038 7.435812 -6.944880
1305031791.262081 2.011621 7.244229 -7.052646
1305031791.263103 2.011621 7.244229 -7.052646
1305031791.266198 2.011621 7.244229 -7.040672
1305031791.267308 2.011621 7.244229 -7.040672
1305031791.270564 1.820038 7.268176 -7.040672
1305031791.271920 1.820038 7.268176 -7.040672
1305031791.273186 1.820038 7.268176 -7.040672
1305031791.274198 1.820038 7.268176 -7.040672
1305031791.277456 1.652403 7.531603 -7.040672
1305031791.278448 1.652403 7.531603 -7.040672
1305031791.282096 1.724246 7.435812 -6.849089
1305031791.283067 1.724246 7.435812 -6.849089
1305031791.286318 1.257263 7.579499 -6.657506
1305031791.287299 1.257263 7.579499 -6.657506
1305031791.290948 1.257263 7.435812 -6.274340
1305031791.292065 1.257263 7.435812 -6.274340
1305031791.293191 1.257263 7.435812 -6.274340
1305031791.294321 1.257263 7.435812 -6.274340
1305031791.297588 0.910019 7.723186 -5.891174
1305031791.300946 0.957915 7.818977 -5.843279
1305031791.301933 0.957915 7.818977 -5.843279
1305031791.303184 0.957915 7.818977 -5.843279
1305031791.304306 0.957915 7.818977 -5.843279
1305031791.307467 0.957915 8.010560 -5.124843
1305031791.308561 0.957915 8.010560 -5.124843
1305031791.312079 0.957915 8.202143 -5.124843
1305031791.313069 0.957915 8.202143 -5.124843
1305031791.316338 0.862123 8.106352 -5.124843
1305031791.317328 0.862123 8.106352 -5.124843
1305031791.320950 0.862123 8.202143 -5.124843
1305031791.322191 0.862123 8.202143 -5.124843
1305031791.323213 0.862123 8.202143 -5.124843
1305031791.324194 0.862123 8.202143 -5.124843
1305031791.327454 1.053706 8.106352 -5.412217
1305031791.328466 1.053706 8.106352 -5.412217
1305031791.332075 1.257263 8.202143 -5.603800
1305031791.333109 1.257263 8.202143 -5.603800
1305031791.336313 1.293185 8.393726 -5.508009
1305031791.337437 1.293185 8.393726 -5.508009
1305031791.341063 1.448846 8.297935 -5.915122
1305031791.342076 1.448846 8.297935 -5.915122
1305031791.343300 1.448846 8.297935 -5.915122
1305031791.344300 1.448846 8.297935 -5.915122
1305031791.347352 1.257263 8.393726 -6.274340
1305031791.348434 1.257263 8.393726 -6.274340
1305031791.351948 1.293185 8.393726 -6.322236
1305031791.353076 1.293185 8.393726 -6.322236
1305031791.356215 1.245289 8.681100 -6.465923
1305031791.357332 1.245289 8.681100 -6.465923
1305031791.358457 1.245289 8.681100 -6.465923
1305031791.359450 1.245289 8.681100 -6.465923
1305031791.363093 1.257263 8.752944 -6.609610
1305031791.364227 1.257263 8.752944 -6.609610
1305031791.367320 1.209367 8.585309 -6.465923
1305031791.368465 1.209367 8.585309 -6.465923
1305031791.371935 1.161471 8.585309 -6.561715
1305031791.372934 1.161471 8.585309 -6.561715
1305031791.376201 1.053706 8.585309 -6.465923
1305031791.377196 1.053706 8.585309 -6.465923
1305031791.378431 1.053706 8.585309 -6.465923
1305031791.379458 1.053706 8.585309 -6.465923
1305031791.383197 1.053706 8.585309 -5.867226
1305031791.384175 1.053706 8.585309 -5.867226
1305031791.387459 0.910019 8.585309 -5.519982
1305031791.388438 0.910019 8.585309 -5.519982
1305031791.392076 0.862123 8.489518 -5.316426
1305031791.393053 0.862123 8.489518 -5.316426
1305031791.396348 0.862123 8.441622 -4.933260
1305031791.397339 0.862123 8.441622 -4.933260
1305031791.400944 0.874097 8.393726 -4.550094
1305031791.401947 0.874097 8.393726 -4.550094
1305031791.403186 0.874097 8.393726 -4.550094
1305031791.404188 0.874097 8.393726 -4.550094
1305031791.407474 0.778306 8.393726 -4.023241
1305031791.408445 0.778306 8.393726 -4.023241
1305031791.412078 0.862123 8.106352 -3.975345
1305031791.413074 0.862123 8.106352 -3.975345
1305031791.416336 1.053706 7.962665 -4.166928
1305031791.417321 1.053706 7.962665 -4.166928
1305031791.420959 1.053706 7.914769 -4.358511
1305031791.422107 1.053706 7.914769 -4.358511
1305031791.423199 1.053706 7.914769 -4.358511
1305031791.424333 1.053706 7.914769 -4.358511
1305031791.427324 1.053706 7.723186 -4.358511
1305031791.428476 1.053706 7.723186 -4.358511
1305031791.432195 0.957915 7.675290 -4.645885
1305031791.433229 0.957915 7.675290 -4.645885
1305031791.434203 0.957915 7.675290 -4.645885
1305031791.437465 1.053706 7.603447 -4.741677
1305031791.438464 1.053706 7.603447 -4.741677
1305031791.442056 1.209367 7.627394 -4.741677
1305031791.443056 1.209367 7.627394 -4.741677
1305031791.446319 1.257263 7.627394 -4.933260
1305031791.447468 1.257263 7.627394 -4.933260
1305031791.450842 1.233315 7.627394 -4.933260
1305031791.452081 1.233315 7.627394 -4.933260
1305031791.453068 1.233315 7.627394 -4.933260
1305031791.456332 1.269237 7.723186 -5.029051
1305031791.457320 1.269237 7.723186 -5.029051
1305031791.460956 1.245289 7.818977 -4.741677
1305031791.461967 1.245289 7.818977 -4.741677
1305031791.463209 1.245289 7.818977 -4.741677
1305031791.464335 1.245289 7.818977 -4.741677
1305031791.467322 1.293185 7.914769 -4.741677
1305031791.468445 1.293185 7.914769 -4.741677
1305031791.472062 1.161471 8.202143 -4.358511
1305031791.473056 1.161471 8.202143 -4.358511
1305031791.476331 1.257263 8.393726 -4.370485
1305031791.477332 1.257263 8.393726 -4.370485
1305031791.480957 1.257263 8.393726 -4.358511
1305031791.481954 1.257263 8.393726 -4.358511
1305031791.483196 1.257263 8.393726 -4.358511
1305031791.484320 1.257263 8.393726 -4.358511
1305031791.487519 1.245289 8.681100 -3.963371
1305031791.488453 1.245289 8.681100 -3.963371
1305031791.492077 1.209367 8.681100 -3.879554
1305031791.493112 1.209367 8.681100 -3.879554
1305031791.496475 1.053706 8.776892 -3.640075
1305031791.497339 1.053706 8.776892 -3.640075
1305031791.500946 0.957915 8.872683 -3.580206
1305031791.501942 0.957915 8.872683 -3.580206
1305031791.503188 0.957915 8.872683 -3.580206
1305031791.504309 0.957915 8.872683 -3.580206
1305031791.507468 0.886071 8.968475 -3.256909
1305031791.508433 0.886071 8.968475 -3.256909
1305031791.512079 1.053706 8.968475 -3.113222
1305031791.513079 1.053706 8.968475 -3.113222
1305031791.516320 0.957915 9.112162 -2.825848
1305031791.517367 0.957915 9.112162 -2.825848
1305031791.520953 1.257263 8.872683 -2.837822
1305031791.521945 1.257263 8.872683 -2.837822
1305031791.523209 1.257263 8.872683 -2.837822
1305031791.524329 1.257263 8.872683 -2.837822
1305031791.527343 1.053706 8.968475 -2.777952
1305031791.528471 1.053706 8.968475 -2.777952
1305031791.532107 1.209367 8.824788 -2.849796
1305031791.533061 1.209367 8.824788 -2.849796
1305031791.536314 1.257263 8.585309 -3.017431
1305031791.537308 1.257263 8.585309 -3.017431
1305031791.540949 1.161471 8.681100 -3.017431
1305031791.541937 1.161471 8.681100 -3.017431
1305031791.543175 1.161471 8.681100 -3.017431
1305031791.544299 1.161471 8.681100 -3.017431
1305031791.547455 1.341080 8.441622 -3.209014
1305031791.548461 1.341080 8.441622 -3.209014
1305031791.552067 1.257263 8.393726 -3.256909
1305031791.553076 1.257263 8.393726 -3.256909
1305031791.556409 1.448846 8.393726 -3.304805
1305031791.557440 1.448846 8.393726 -3.304805
1305031791.558439 1.448846 8.393726 -3.304805
1305031791.562081 1.293185 8.202143 -3.592179
1305031791.563069 1.293185 8.202143 -3.592179
1305031791.566325 1.257263 8.034508 -3.975345
1305031791.567307 1.257263 8.034508 -3.975345
1305031791.570971 0.957915 8.058456 -4.071137
1305031791.572060 0.957915 8.058456 -4.071137
1305031791.573187 0.957915 8.058456 -4.071137
1305031791.574304 0.957915 8.058456 -4.071137
1305031791.577476 0.862123 8.202143 -4.262720
1305031791.578470 0.862123 8.202143 -4.262720
1305031791.582129 0.862123 8.297935 -4.358511
1305031791.583064 0.862123 8.297935 -4.358511
1305031791.586350 0.957915 8.405700 -4.071137
1305031791.587322 0.957915 8.405700 -4.071137
1305031791.590943 0.886071 8.776892 -3.975345
1305031791.592053 0.886071 8.776892 -3.975345
1305031791.593217 0.886071 8.776892 -3.975345
1305031791.594188 0.886071 8.776892 -3.975345
1305031791.597502 0.862123 8.968475 -3.496388
1305031791.598439 0.862123 8.968475 -3.496388
1305031791.602206 0.910019 9.148084 -3.304805
1305031791.603187 0.910019 9.148084 -3.304805
1305031791.606315 0.957915 9.351641 -3.209014
1305031791.607341 0.957915 9.351641 -3.209014
1305031791.610938 0.862123 9.639015 -2.921639
1305031791.611937 0.862123 9.639015 -2.921639
1305031791.613197 0.862123 9.639015 -2.921639
1305031791.614195 0.862123 9.639015 -2.921639
1305031791.617452 0.874097 9.878494 -2.442682
1305031791.618443 0.874097 9.878494 -2.442682
1305031791.622157 0.862123 9.926389 -2.059516
1305031791.623225 0.862123 9.926389 -2.059516
1305031791.626353 0.862123 10.022181 -1.867933
1305031791.627337 0.862123 10.022181 -1.867933
1305031791.630941 0.778306 10.261659 -1.963725
1305031791.632088 0.778306 10.261659 -1.963725
1305031791.633082 0.778306 10.261659 -1.963725
1305031791.636314 0.826201 10.297581 -1.867933
1305031791.637328 0.826201 10.297581 -1.867933
1305031791.640939 0.778306 10.213764 -2.011621
1305031791.641944 0.778306 10.213764 -2.011621
1305031791.643191 0.778306 10.213764 -2.011621
1305031791.644191 0.778306 10.213764 -2.011621
1305031791.647325 0.886071 9.926389 -2.107412
1305031791.648438 0.886071 9.926389 -2.107412
1305031791.652125 0.862123 9.830598 -2.059516
1305031791.653200 0.862123 9.830598 -2.059516
1305031791.654215 0.862123 9.830598 -2.059516
1305031791.657448 0.862123 9.591119 -2.059516
1305031791.658440 0.862123 9.591119 -2.059516
1305031791.661945 0.862123 9.351641 -2.059516
1305031791.663101 0.862123 9.351641 -2.059516
1305031791.666337 0.910019 9.351641 -2.107412
1305031791.667319 0.910019 9.351641 -2.107412
1305031791.670600 0.957915 9.184006 -2.059516
1305031791.671933 0.957915 9.184006 -2.059516
1305031791.673185 0.957915 9.184006 -2.059516
1305031791.674183 0.957915 9.184006 -2.059516
1305031791.677459 0.862123 9.255849 -1.867933
1305031791.678447 0.862123 9.255849 -1.867933
1305031791.682075 0.826201 9.351641 -1.628455
1305031791.683071 0.826201 9.351641 -1.628455
1305031791.686348 0.826201 9.351641 -1.700298
1305031791.687318 0.826201 9.351641 -1.700298
1305031791.691051 0.874097 9.255849 -1.676350
1305031791.692042 0.874097 9.255849 -1.676350
1305031791.693097 0.874097 9.255849 -1.676350
1305031791.696372 0.957915 9.351641 -1.676350
1305031791.697336 0.957915 9.351641 -1.676350
1305031791.700946 0.910019 9.543224 -1.484768
1305031791.701941 0.910019 9.543224 -1.484768
1305031791.703190 0.910019 9.543224 -1.484768
1305031791.704314 0.910019 9.543224 -1.484768
1305031791.707443 1.053706 9.591119 -1.676350
1305031791.708432 1.053706 9.591119 -1.676350
1305031791.712079 0.957915 9.591119 -1.628455
1305031791.713058 0.957915 9.591119 -1.628455
1305031791.716329 0.862123 9.639015 -1.484768
1305031791.717312 0.862123 9.639015 -1.484768
1305031791.720952 0.778306 9.734806 -1.484768
1305031791.722075 0.778306 9.734806 -1.484768
1305031791.723076 0.778306 9.734806 -1.484768
1305031791.726321 0.778306 9.734806 -1.580559
1305031791.727328 0.778306 9.734806 -1.580559
1305031791.730607 0.682514 9.734806 -1.484768
1305031791.731941 0.682514 9.734806 -1.484768
1305031791.733228 0.682514 9.734806 -1.484768
1305031791.734208 0.682514 9.734806 -1.484768
1305031791.737433 0.682514 9.830598 -1.293185
1305031791.738436 0.682514 9.830598 -1.293185
1305031791.742061 0.778306 9.591119 -1.245289
1305031791.743064 0.778306 9.591119 -1.245289
1305031791.746337 0.682514 9.567171 -1.293185
1305031791.747319 0.682514 9.567171 -1.293185
1305031791.750953 0.862123 9.543224 -1.101602
1305031791.752061 0.862123 9.543224 -1.101602
1305031791.753078 0.862123 9.543224 -1.101602
1305031791.756348 0.862123 9.639015 -1.101602
1305031791.757316 0.862123 9.639015 -1.101602
1305031791.760956 0.862123 9.914415 -0.921993
1305031791.761935 0.862123 9.914415 -0.921993
1305031791.763210 0.862123 9.914415 -0.921993
1305031791.764352 0.862123 9.914415 -0.921993
1305031791.767339 0.862123 9.914415 -0.814227
1305031791.768446 0.862123 9.914415 -0.814227
1305031791.772081 0.910019 9.926389 -0.550801
1305031791.773072 0.910019 9.926389 -0.550801
1305031791.776321 0.862123 10.022181 -0.431062
1305031791.777328 0.862123 10.022181 -0.431062
1305031791.780952 0.862123 10.022181 -0.143687
1305031791.781935 0.862123 10.022181 -0.143687
1305031791.783204 0.862123 10.022181 -0.143687
1305031791.784191 0.862123 10.022181 -0.143687
1305031791.787455 0.862123 9.950337 -0.335270
1305031791.788440 0.862123 9.950337 -0.335270
1305031791.792085 0.778306 9.926389 -0.191583
1305031791.793081 0.778306 9.926389 -0.191583
1305031791.796331 0.574749 9.926389 -0.119739
1305031791.797340 0.574749 9.926389 -0.119739
1305031791.800968 0.778306 9.926389 -0.143687
1305031791.802084 0.778306 9.926389 -0.143687
1305031791.803072 0.778306 9.926389 -0.143687
1305031791.806204 0.526853 9.830598 -0.143687
1305031791.807302 0.526853 9.830598 -0.143687
1305031791.808926 0.526853 9.830598 -0.143687
1305031791.812082 0.682514 9.639015 -0.239479
1305031791.813061 0.682514 9.639015 -0.239479
1305031791.816501 0.574749 9.734806 -0.143687
1305031791.817461 0.574749 9.734806 -0.143687
1305031791.818446 0.574749 9.734806 -0.143687
1305031791.822075 0.826201 9.639015 -0.239479
1305031791.823079 0.826201 9.639015 -0.239479
1305031791.826330 0.778306 9.543224 -0.335270
1305031791.827328 0.778306 9.543224 -0.335270
1305031791.830867 0.682514 9.543224 -0.239479
1305031791.831933 0.682514 9.543224 -0.239479
1305031791.833239 0.682514 9.543224 -0.239479
1305031791.834200 0.682514 9.543224 -0.239479
1305031791.837447 0.478957 9.519276 -0.143687
1305031791.838447 0.478957 9.519276 -0.143687
1305031791.842077 0.478957 9.351641 -0.143687
1305031791.843069 0.478957 9.351641 -0.143687
1305031791.846201 0.526853 9.447432 -0.143687
1305031791.847311 0.526853 9.447432 -0.143687
1305031791.848826 0.526853 9.447432 -0.143687
1305031791.849957 0.526853 9.447432 -0.143687
1305031791.853201 0.682514 9.447432 -0.143687
1305031791.854189 0.682514 9.447432 -0.143687
1305031791.857323 0.682514 9.447432 -0.143687
1305031791.858461 0.682514 9.447432 -0.143687
1305031791.861914 0.682514 9.543224 -0.191583
1305031791.862906 0.682514 9.543224 -0.191583
1305031791.866361 0.682514 9.591119 -0.239479
1305031791.867346 0.682514 9.591119 -0.239479
1305031791.870938 0.682514 9.639015 -0.095791
1305031791.871932 0.682514 9.639015 -0.095791
1305031791.872951 0.682514 9.639015 -0.095791
1305031791.876333 0.502905 9.734806 -0.143687
1305031791.877326 0.502905 9.734806 -0.143687
1305031791.878828 0.502905 9.734806 -0.143687
1305031791.879926 0.502905 9.734806 -0.143687
1305031791.883514 0.682514 9.830598 -0.143687
1305031791.886215 0.574749 9.734806 0.047896
1305031791.887191 0.574749 9.734806 0.047896
1305031791.888441 0.574749 9.734806 0.047896
1305031791.889570 0.574749 9.734806 0.047896
1305031791.893070 0.574749 9.639015 0.239479
1305031791.894208 0.574749 9.639015 0.239479
1305031791.897472 0.526853 9.567171 0.335270
1305031791.898438 0.526853 9.567171 0.335270
1305031791.901937 0.826201 9.495328 0.622644
1305031791.903075 0.826201 9.495328 0.622644
1305031791.906325 0.778306 9.351641 0.814227
1305031791.907316 0.778306 9.351641 0.814227
1305031791.910940 0.778306 9.255849 1.005810
1305031791.911932 0.778306 9.255849 1.005810
1305031791.913192 0.778306 9.255849 1.005810
1305031791.914213 0.778306 9.255849 1.005810
1305031791.917457 0.826201 9.160058 1.197393
1305031791.918442 0.826201 9.160058 1.197393
1305031791.922082 0.862123 8.968475 1.365028
1305031791.923078 0.862123 8.968475 1.365028
1305031791.926342 0.862123 8.800840 1.293185
1305031791.927329 0.862123 8.800840 1.293185
1305031791.930456 0.910019 8.776892 1.293185
1305031791.931566 0.910019 8.776892 1.293185
1305031791.933073 0.910019 8.776892 1.293185
1305031791.934208 0.910019 8.776892 1.293185
1305031791.937453 1.053706 8.776892 1.101602
1305031791.938447 1.053706 8.776892 1.101602
1305031791.942067 0.862123 8.800840 1.388976
1305031791.943055 0.862123 8.800840 1.388976
1305031791.946333 0.862123 8.872683 1.293185
1305031791.947296 0.862123 8.872683 1.293185
1305031791.951370 0.778306 8.968475 1.053706
1305031791.952283 0.778306 8.968475 1.053706
1305031791.953313 0.778306 8.968475 1.053706
1305031791.956360 0.682514 8.968475 1.197393
1305031791.957319 0.682514 8.968475 1.197393
1305031791.960943 0.910019 9.136110 1.101602
1305031791.961930 0.910019 9.136110 1.101602
1305031791.963168 0.910019 9.136110 1.101602
1305031791.964166 0.910019 9.136110 1.101602
1305031791.967300 0.826201 9.255849 1.197393
1305031791.968464 0.826201 9.255849 1.197393
1305031791.972065 0.862123 9.447432 1.005810
1305031791.973058 0.862123 9.447432 1.005810
1305031791.976189 0.778306 9.543224 1.293185
1305031791.977299 0.778306 9.543224 1.293185
1305031791.978422 0.778306 9.543224 1.293185
1305031791.979607 0.778306 9.543224 1.293185
1305031791.983202 0.778306 9.543224 1.101602
1305031791.984194 0.778306 9.543224 1.101602
1305031791.987371 0.862123 9.519276 1.197393
1305031791.988453 0.862123 9.519276 1.197393
1305031791.992092 0.957915 9.351641 1.388976
1305031791.993069 0.957915 9.351641 1.388976
1305031791.996359 0.957915 9.351641 1.388976
1305031791.997315 0.957915 9.351641 1.388976
1305031791.998443 0.957915 9.351641 1.388976
1305031791.999585 0.957915 9.351641 1.388976
1305031792.003241 0.957915 9.351641 1.820038
1305031792.004187 0.957915 9.351641 1.820038
1305031792.007308 1.053706 9.184006 1.867933
1305031792.008459 1.053706 9.184006 1.867933
1305031792.012068 0.957915 9.160058 2.155308
1305031792.013067 0.957915 9.160058 2.155308
1305031792.016354 0.682514 9.148084 2.538474
1305031792.017339 0.682514 9.148084 2.538474
1305031792.020958 0.682514 8.968475 2.155308
1305031792.021936 0.682514 8.968475 2.155308
1305031792.023214 0.682514 8.968475 2.155308
1305031792.024308 0.682514 8.968475 2.155308
1305031792.027341 0.478957 9.064266 2.155308
1305031792.028437 0.478957 9.064266 2.155308
1305031792.031948 0.395140 9.160058 2.251099
1305031792.033072 0.395140 9.160058 2.251099
1305031792.036197 0.443035 9.160058 2.251099
1305031792.037192 0.443035 9.160058 2.251099
1305031792.038480 0.443035 9.160058 2.251099
1305031792.039474 0.443035 9.160058 2.251099
1305031792.043080 0.287374 9.447432 2.107412
1305031792.044175 0.287374 9.447432 2.107412
1305031792.047344 0.443035 9.543224 2.155308
1305031792.048481 0.443035 9.543224 2.155308
1305031792.051950 0.478957 9.543224 1.963725
1305031792.052936 0.478957 9.543224 1.963725
1305031792.056224 0.502905 9.543224 1.963725
1305031792.057182 0.502905 9.543224 1.963725
